frame_id,timestamp,gait_type,root_linear_velocity_x,root_linear_velocity_y,root_linear_velocity_z,root_angular_velocity_x,root_angular_velocity_y,root_angular_velocity_z,left_linear_velocity_x,left_linear_velocity_y,left_linear_velocity_z,right_linear_velocity_x,right_linear_velocity_y,right_linear_velocity_z,root_acceleration_x,root_acceleration_y,root_acceleration_z,left_acceleration_x,left_acceleration_y,left_acceleration_z,right_acceleration_x,right_acceleration_y,right_acceleration_z,left_pos_rel_x,left_pos_rel_y,left_pos_rel_z,right_pos_rel_x,right_pos_rel_y,right_pos_rel_z,step_length,step_width,step_height,left_contact_prob,right_contact_prob,support_type,max_foot_height
1,0.004167,walk,0.046076313894881205,0.1123110151188229,0.00239980801534785,0.0922418308844629,-0.216214501739699,-0.05013612337119071,0.0043196544276101435,-0.004079673626094009,-0.0011999040076793369,0.0028797696184067628,0.002639788816917271,0.0,0.0,0.0,0.0,0.0,0.0,0.0,0.0,0.0,0.0,0.03312399999999993,-0.1327480000000001,-0.9283819999999999,0.002874999999999961,0.17846099999999998,-0.918295,0.03024899999999997,0.31120900000000007,0.010086999999999957,0.9898973434603313,0.8926189926421524,double,-0.918295
2,0.008333,walk,0.0496879500720279,0.1250600096015347,0.006000960153637243,0.05898817543229327,-0.3023030208475452,-0.018203385575958478,0.005280844935234886,-0.002160345655287022,0.004560729716754661,0.004080652904502107,0.0026404224675907932,0.0009601536245792274,0.8669313915378527,3.0602483155813283,0.864414819560584,0.23072263745193045,0.460712426981994,1.3827733375981752,0.2882581099604762,0.0001521004977249938,0.23047374569832627,0.03293900000000005,-0.133278,-0.928388,0.0026850000000000485,0.17795099999999997,-0.918316,0.030254000000000003,0.311229,0.01007199999999997,0.9878259529086573,0.8910227718672312,double,-0.918316
3,0.0125,walk,0.07631389488841862,0.12862970962319892,-0.004799616030722342,0.1083801550976909,-0.19137270650565202,-0.02767273256235525,0.0045596352291795645,-0.003599712023061739,-0.001199904007679753,0.002879769618406762,0.0031197504199495397,0.0004799616030722342,6.389715578687478,0.8566594724416143,-2.5919309297719186,-0.17307648333461034,-0.3454202946423606,-1.3824414985443758,-0.28818893354819886,0.11502950620560268,-0.11523686621238136,0.03264,-0.13382899999999998,-0.928373,0.002378999999999909,0.17742800000000003,-0.9182939999999999,0.030261000000000093,0.311257,0.01007900000000006,0.990113425250512,0.8920887721723674,double,-0.9182939999999999
4,0.016667,walk,0.04415646748259226,0.11615070794340075,0.00047996160308555583,0.075443948282042,-0.24940954386181538,-0.09738313669839734,0.0023998080153212063,-0.004319654427610143,0.003359731221502309,0.003359731221492318,0.0009599232061444684,0.0002399808015361171,-7.717165204181991,-2.9947208254855204,1.2669972723321086,-0.518317065960729,-0.17277235530319263,1.0942249170103338,0.11518157021491623,-0.5183170659479412,-0.057590785105859625,0.032465999999999884,-0.13433099999999998,-0.928361,0.0022089999999999055,0.17694799999999988,-0.9182950000000001,0.03025699999999998,0.31127899999999986,0.010065999999999908,0.990040877051513,0.8935026591795505,double,-0.9182950000000001
5,0.020833,walk,0.035525684109466396,0.1349015842534689,0.023043686989914786,0.1000974993630006,-0.45313972630719784,0.12031426199955157,0.0024003840614655577,-0.0012001920307327788,0.003600576092175018,0.0038406144983235725,0.0026404224675907937,0.0,-2.071719484667755,4.500930463290484,5.416160678547584,0.00013827319835605444,0.7487907817756515,0.057812018884471655,0.1154304553123511,0.40338436424539736,-0.05760460910612509,0.03232799999999991,-0.13489799999999996,-0.928442,0.0020769999999998845,0.17639699999999991,-0.9183910000000001,0.030251000000000028,0.3112949999999999,0.010050999999999921,0.992515487704467,0.8917221620103412,double,-0.9183910000000001
6,0.025,walk,0.08279337652983385,0.1262299016078777,-0.0031197504199761833,0.19784685935111485,-0.2557023027045238,0.18023534344994627,0.004079673626094008,-0.0031197504199761833,0.0007199424046075187,0.0038396928245778734,0.0026397888169172705,0.0007199424046075187,11.343338713791082,-2.0810373519537326,-6.278722680559387,0.4029972557303696,-0.46065716084554936,-0.6912967812736978,-0.00022118400424743693,-0.00015206399652584388,0.17277235531737908,0.03200000000000003,-0.13543700000000003,-0.928426,0.0017480000000000828,0.17588199999999998,-0.9183749999999999,0.030251999999999946,0.311319,0.010051000000000032,0.9913566183565528,0.8916318755681729,double,-0.9183749999999999
7,0.029167,walk,0.04511639068876341,0.12335013198941776,0.006959443244554063,0.08660291997135953,-0.21481471165327043,-0.015531125784038745,0.003839692824577877,-0.002879769618460051,0.0009599232061436366,0.003839692824577877,0.0033597312214923205,0.0,-9.041753261595984,-0.691089421276684,2.418812974449305,-0.05759078510106343,0.05759078510106374,0.057590785105859854,8.326006604160347e-16,0.17277235530958734,-0.17277235531737922,0.03182799999999997,-0.13596300000000006,-0.928451,0.0015760000000000218,0.17538200000000004,-0.918404,0.030251999999999946,0.3113450000000001,0.010047000000000028,0.9918422214005055,0.8910265636247284,double,-0.918404
8,0.033333,walk,0.04512722035527529,0.14810369659147607,0.013442150744105843,-0.04572256120625879,-0.24772666009017583,-0.09458368132950035,0.0016802688430365487,-0.0012001920306794786,0.0012001920307248661,0.004800768122877812,0.0036005760921716838,0.0,0.0025995358885943986,5.941806193484948,1.5560987756965374,-0.5183446907204337,0.4031631271676839,0.05767374569880686,0.23069498278923042,0.05781201888606892,0.0,0.03164699999999998,-0.13658499999999996,-0.9285019999999999,0.0014079999999998538,0.17477999999999994,-0.9184599999999999,0.030239000000000127,0.3113649999999999,0.010041999999999995,0.9960194133577234,0.8895783997439912,double,-0.9184599999999999
9,0.0375,walk,0.04775617950560075,0.13054955603548796,-0.005519558435324037,0.07970153052297639,-0.2660107617096507,-0.09490105458065133,0.0040796736260940115,-0.0023998080153744944,0.004319654427645532,0.003119750419976186,0.0014398848092300254,0.0014398848092150385,0.6308997241001829,-4.212656720899478,-4.550446167369785,0.5758110830471477,-0.2878848055423606,0.7486110863740503,-0.4034119757383314,-0.5185244259519222,0.3455447106347587,0.031465000000000076,-0.1371389999999999,-0.928461,0.0012220000000000564,0.17424200000000012,-0.918431,0.03024300000000002,0.311381,0.010029999999999983,0.9893200304593157,0.8934908268553245,double,-0.918431
10,0.041667,walk,0.05423566114712246,0.147588192944572,0.014878809695225927,0.06825075165756346,-0.24775684428538364,0.024335786003443646,0.0011999040076872453,-0.0019198464122889352,0.0014398848092154525,0.003599712023061736,0.0016798656107461574,0.001199904007679752,1.5549511978693784,4.088945742520767,4.895216733993267,-0.6910894212639221,0.11518157021491691,-0.6910894212695169,0.11518157021491468,0.05759078510106354,-0.05759078510566027,0.03124400000000005,-0.13776199999999994,-0.928517,0.0010110000000000952,0.17363400000000007,-0.918488,0.030232999999999954,0.311396,0.010029000000000066,0.9955282217872492,0.8927939067011168,double,-0.918488
11,0.045833,walk,0.0633701392222857,0.14042246759482915,0.0038406144983235756,0.05475629579635688,-0.20733532914105712,-0.029578259152309678,0.002160345655287024,-0.002640422467590796,0.00024003840614480708,0.0031204992798945677,0.002640422467590796,-0.00048007681229044694,2.19262555812848,-1.7200492918249795,-2.6495907817816517,0.23054288228511274,-0.17296592782089806,-0.28800921821186903,-0.11502946307421233,0.230570536928622,-0.40325991837978886,0.030988999999999933,-0.13835799999999998,-0.928532,0.0007600000000000939,0.17306,-0.918506,0.03022899999999984,0.311418,0.01002599999999998,0.9942999652549547,0.8928803311731867,double,-0.918506
12,0.05,walk,0.0635949124069977,0.1319894408447444,-0.0009599232061444676,0.19845188190344148,-0.27873754362661923,0.16064492027165542,0.0014398848092566662,-0.0023998080153744905,-0.0002399808015357006,0.003359731221492315,0.0021598272138317128,-0.0002399808015361169,0.05394124903095918,-2.0237645188588305,-1.1520368861214396,-0.17289677130558126,0.057742849103984896,-0.11519539421178479,0.057411073097611454,-0.11533363421144291,0.05761843310639064,0.030730000000000146,-0.1389180000000001,-0.928529,0.0005090000000000927,0.17251899999999998,-0.918503,0.030221000000000053,0.3114370000000001,0.01002600000000009,0.99531849455609,0.8930712007037365,double,-0.918503
13,0.054167,walk,0.07967362610991101,0.09743220542354374,-0.009359251259901913,-0.04902655344677798,-0.08316292984357335,-0.38386940323480523,0.0026397888168906295,-0.001679865610719517,0.004319654427645948,0.0028797696184067645,0.0021598272138050735,0.0021598272138233904,3.8585826020910288,-8.293073055243745,-2.015677478703492,0.28795392551810994,0.17277235532876745,1.0942249170102356,-0.11518157021491497,-6.392916020839419e-12,0.5759078510581975,0.03040900000000013,-0.13933099999999987,-0.928472,0.00018899999999999473,0.172122,-0.918455,0.030220000000000136,0.31145299999999987,0.010016999999999943,0.9911102668703129,0.8928334174528314,double,-0.918455
14,0.058333,walk,0.03456553048491212,0.13274123859818177,0.00984157465193416,0.07322064307555158,-0.45100098184878795,-0.12127707884643574,0.0024003840614122566,-0.000960153624607542,0.0031204992798845687,0.0040806529044488055,0.004800768122904461,-0.0052808449351899114,-10.827675378060215,8.475524045760443,4.6089356485444215,-0.05746633592855803,0.17275851802975867,-0.28784329038919315,0.28825810994768125,0.6339272465432996,-1.7860470832965187,0.03027499999999983,-0.139888,-0.9285,6.199999999978445e-05,0.171589,-0.918518,0.030213000000000045,0.311477,0.009982000000000046,0.993246142176321,0.8864781726760014,double,-0.918518
15,0.0625,walk,0.031197504199655283,0.17542596592273524,0.029517638588935767,-0.04089318313829534,-0.3335072016976681,-0.011023996477806334,0.0007199424046016911,-0.0023998080153744944,0.0007199424046075193,0.003119750419976186,0.0016798656107461602,0.0007199424046075193,-0.8082616475298394,10.243515076686705,4.721877594672816,-0.40327373573567715,-0.3454894146308984,-0.5760875630614474,-0.23059814842155513,-0.7489566863830821,1.4400737556509322,0.03014799999999984,-0.14062900000000012,-0.92862,-5.500000000013827e-05,0.17086499999999993,-0.9186380000000001,0.03020299999999998,0.31149400000000005,0.009981999999999935,0.9956552353846678,0.8941538744207085,double,-0.9186380000000001
16,0.066667,walk,0.06383489320851385,0.14542836573071366,0.008639308855273566,-0.008634674947747608,-0.1988532681386489,-0.15453122793455312,0.00023998080156942094,-0.0021598272138050696,0.0031197504199666055,0.00455963522917956,0.0031197504199761807,0.002639788816894788,7.832346774384098,-7.198848138234113,-5.010398304214586,-0.11518157020212856,0.0575907851138528,0.5759078510580955,0.3455447106319589,0.3455447106383535,0.4607262808464763,0.029883000000000104,-0.14124399999999993,-0.928643,-0.00030200000000002447,0.1702720000000001,-0.918663,0.03018500000000013,0.311516,0.009979999999999989,0.9936633151277009,0.889994935747396,double,-0.918663
17,0.070833,walk,0.04704752760443723,0.15890542486801829,0.01656265002400046,0.07363163862160796,-0.42052385040928997,0.095729854502946,0.0012001920307327819,-0.002880460873716037,0.0016802688430149015,0.0036005760921983456,0.0016802688430099047,-0.000480076812289615,-4.029612482975676,3.235011794840293,1.901906185484137,0.23048757301088896,-0.17297975513945496,-0.34553086340655487,-0.23021102663975446,-0.34553086341005274,-0.7488875730159412,0.02969200000000005,-0.141918,-0.928705,-0.0004830000000000112,0.1696169999999999,-0.9187339999999999,0.030175000000000063,0.3115349999999999,0.009971000000000063,0.9940931256760426,0.8936195999357446,double,-0.9187339999999999
18,0.075,walk,0.08615310775137938,0.14158867290613578,-0.002879769618433403,0.16145867009513593,-0.301619529677976,0.10773758261526299,0.0014398848092033799,-0.0011999040076872453,0.0014398848092150361,0.004079673626094005,0.0014398848092033799,-0.0002399808015361169,9.384588468188653,-4.155688015810534,-4.665807449588155,0.05752166509973548,0.4033013837362107,-0.05768755310771903,0.11497421019814219,-0.057687553109317155,0.05761843310619099,0.029339000000000004,-0.1425129999999999,-0.9286869999999999,-0.0008250000000000757,0.169033,-0.918723,0.03016400000000008,0.3115459999999999,0.009963999999999973,0.9960607720175259,0.8931383896947489,double,-0.918723
19,0.079167,walk,0.04775617950565396,0.1523878089752677,0.0009599232061444676,0.10214284239331478,-0.3618916262494059,0.06985889472702905,0.0009599232061178244,-0.0004799616030855554,0.001679865610751153,0.0031197504199761807,0.004079673626120648,0.000959923206143635,-9.214525616924739,2.591585329765281,0.9214525616937526,-0.115181570214916,0.17277235531598015,0.05759078510585953,-0.23036314041704414,0.6334986361692503,0.2879539255290979,0.029143999999999837,-0.1431499999999999,-0.928684,-0.0010110000000000952,0.1684150000000001,-0.918723,0.030154999999999932,0.311565,0.009960999999999998,0.9966776162455482,0.8916820802107286,double,-0.918723
20,0.083333,walk,0.052328372539565356,0.1665866538646649,0.01848295727316219,-0.009414524202766427,-0.22023322870368048,-0.08183991308140372,0.0016802688430365487,-0.0014402304368580138,0.001920307249160119,0.0031204992798945625,0.0021603456553136702,-0.0002400384061452231,1.097501928447286,3.4082680963507377,4.206201168271173,0.17291061855946321,-0.23050140032944255,0.057715227654576526,0.0001797551412342282,-0.4607124269819915,-0.28803687284898155,0.028933000000000098,-0.14385000000000003,-0.9287529999999999,-0.0012159999999998838,0.16772999999999993,-0.918801,0.03014899999999998,0.31157999999999997,0.009951999999999961,0.9951165964091208,0.8941417940799291,double,-0.918801
21,0.0875,walk,-0.002159827213805077,0.1497480201583776,0.02999760019199473,-0.10005993990876934,-0.28912053440732427,-0.31380741111099403,0.00023998080151613527,-0.000479961603085557,0.001439884809215041,0.003839692824577883,0.002159827213805077,0.0007199424046075204,-13.076121851060849,-4.0409488136038725,2.7632932370608514,-0.3456414786466083,0.23044608441863665,-0.1152921622138419,0.17259264331253232,-0.0001244160087816833,0.2303769644235051,0.02894299999999994,-0.14447600000000005,-0.928872,-0.001190999999999942,0.1671149999999999,-0.9189229999999999,0.030133999999999883,0.31159099999999995,0.009949000000000097,0.99743895518861,0.8930701650917063,double,-0.9189229999999999
22,0.091667,walk,0.05999520038398926,0.168706503479697,0.004079673626120648,0.0826383398094638,-0.3048678369108649,0.13779028973990998,0.0011999040076872453,-0.0007199424046016899,0.0028797696184304886,0.005519558435297385,0.0031197504199761807,0.00191984641228727,14.916013342403234,4.549672023354787,-6.219804791426459,0.2303631404298318,-0.05759078510106376,0.3455447106348563,0.40313549573302143,0.23036314042983028,0.28795392552909727,0.02869799999999989,-0.14518199999999992,-0.9288770000000001,-0.0014180000000001414,0.16642500000000005,-0.9189320000000001,0.03011600000000003,0.31160699999999997,0.009944999999999982,0.994663761273445,0.8895091442750149,double,-0.9189320000000001
23,0.095833,walk,0.032885261641822275,0.15170427268362108,0.0064810369659143606,0.15853353122485633,-0.2954637895908765,0.12852780966679253,0.0002400384061785351,-0.0019203072491617847,-0.00024003840614480668,0.004080652904502104,0.004080652904475455,0.0,-6.50742648635789,-4.081188381199214,0.576419428659076,-0.23040460909954621,-0.2881336640806755,-0.748873745697382,-0.3453925902053,0.2306535008399601,-0.46083687284860025,0.0285620000000002,-0.1458219999999999,-0.928905,-0.0015379999999998173,0.16581000000000012,-0.9189590000000001,0.030100000000000016,0.311632,0.0099459999999999,0.9967498646164743,0.8909218088652247,double,-0.9189590000000001
24,0.1,walk,0.07487401007921518,0.1751859851212188,0.002879769618433403,0.08973765707124019,-0.33943505604453705,0.19995190391950088,0.0016798656107195142,-0.00023998080151613449,0.003359731221502306,0.005039596832211829,0.0019198464122889352,0.0014398848092150361,10.076493505493849,5.635160172209671,-0.8642350245934616,0.34553088661890513,0.40324608774793586,0.8638756005872592,0.23012813239974186,-0.5185520739588476,0.34554471063475756,0.028256999999999977,-0.14655299999999993,-0.928903,-0.0018290000000000806,0.165088,-0.918965,0.030086000000000057,0.31164099999999995,0.009938000000000002,0.9937267470037221,0.8913169815618462,double,-0.918965
25,0.104167,walk,0.03551715862731877,0.1655867530597214,0.009119270458359151,-0.02612387035689465,-0.24325508319969955,-0.11372607342528725,0.002159827213805077,-0.0019198464122889415,0.0,0.002639788816890634,0.00479961603069571,0.0016798656107511586,-9.444888757354573,-2.3036314042470427,1.4973604127491633,0.11518157021491814,-0.4031354957458149,-0.8062709914812368,-0.5759078510490043,0.6910894212639266,0.05759078510586107,0.028117999999999865,-0.1472509999999998,-0.928941,-0.0019660000000001343,0.16441800000000006,-0.918996,0.030084,0.31166899999999986,0.009944999999999982,0.9951837474687056,0.8910008948193974,double,-0.918996
26,0.108333,walk,0.009361497839630388,0.17354776764282973,0.018242918867010304,-0.06821533786150472,-0.21721237141044833,-0.13900454996587489,0.0002400384061785351,-0.0024003840614655555,0.0024003840614497322,0.005520883341360118,0.002880460873742677,0.0014402304368705057,-6.278363127145551,1.9109492518262896,2.1900260222398336,-0.4608230455176525,-0.11534749140101144,0.5761843642462147,0.6915733376066928,-0.4606709450199309,-0.057521645194587794,0.028080000000000105,-0.1479839999999999,-0.929007,-0.0019819999999999283,0.16370700000000005,-0.9190659999999999,0.030062000000000033,0.31169099999999994,0.009941000000000089,0.994328113746674,0.8899374740312505,double,-0.9190659999999999
27,0.1125,walk,0.035517158627318655,0.17158627309815705,0.004079673626120648,0.067040585453538,-0.392772331638881,0.16940501689557308,0.0014398848092033799,0.0011999040076872453,0.00191984641228727,0.004799616030695695,0.003359731221518958,0.0004799616030714012,6.276856440529936,-0.4707210330387987,-3.3989069452578935,0.287940101517841,0.8640000165953438,-0.11531981021417366,-0.17309030733487463,0.11501568221173045,-0.23044608442503087,0.02793800000000002,-0.14869399999999988,-0.9290160000000001,-0.0021100000000000563,0.1630060000000001,-0.919081,0.030048000000000075,0.3117,0.009935000000000027,0.9955282217872619,0.890852824802897,double,-0.919081
28,0.116667,walk,-0.007679385649155741,0.16342692584596905,0.014878809695225927,0.07958225164202927,-0.2551650458493185,0.14112239383245803,0.0,-0.0009599232061711108,-0.0004799616030718175,0.006239500839952361,0.00455963522917956,0.000959923206143635,-10.36634131904832,-1.958086693589632,2.5915853297588836,-0.3455447106319603,-0.518317065960728,-0.5759078510580958,0.34554471064474807,0.2879539255245023,0.11518157021171907,0.02797000000000005,-0.14937900000000015,-0.92908,-0.0020519999999999428,0.16234399999999993,-0.919139,0.030021999999999993,0.3117230000000001,0.009940999999999978,0.9982112887148618,0.8876110537240076,double,-0.919139
29,0.120833,walk,0.05640902544406765,0.18314930388858597,-0.0024003840614655637,0.003764481783899505,-0.21647852304038326,0.03822422391445848,0.0012001920307327819,0.0012001920307327819,0.002640422467594548,0.004560729716752592,0.0055208833413334865,0.0019203072491592926,15.383680051181845,4.734128190738592,-4.147670128826581,0.2880921821250084,0.5185106185559045,0.7490120188829509,-0.402969544695097,0.23073646475130313,0.23052905497255402,0.027740000000000098,-0.15013699999999996,-0.929059,-0.0022679999999999367,0.16160400000000008,-0.919121,0.030008000000000035,0.31174100000000005,0.009938000000000002,0.9947684842252176,0.8882632667535,double,-0.919121
30,0.125,walk,0.08375329973605818,0.1507079433645482,-0.057835373170130905,0.2256342157370123,0.9855583774715719,-0.25413249044354286,0.0009599232061178244,-0.0004799616030855554,0.0002399808015361169,0.006239500839952361,0.003359731221492315,0.0014398848092158688,6.562100862008759,-7.785303701472937,-13.303333119430116,-0.057659905115180515,-0.4032046157471408,-0.5760599150608181,0.4028728397407651,-0.5186350179604439,-0.11529216221344453,0.027394999999999836,-0.1507670000000001,-0.928817,-0.00259100000000001,0.16098999999999997,-0.9188740000000001,0.029985999999999846,0.31175700000000006,0.009942999999999924,0.9981671163527367,0.8885177488414165,double,-0.9188740000000001
31,0.129167,walk,0.02183825293972669,0.1857451403887813,-0.0004799616030855554,0.12027315188681643,-0.19977160988626702,0.15699174864460488,-0.00047996160303226897,0.0,0.001679865610751153,0.005519558435297385,0.004079673626120648,0.0004799616030714012,-14.858422557314958,8.408254625445895,13.764197640279649,-0.3455447106191726,0.11518157021491598,0.34554471063475756,-0.1727723553287679,0.17277235532237403,-0.23036314042343814,0.02730200000000016,-0.15154100000000015,-0.928808,-0.002658999999999967,0.16023299999999996,-0.91887,0.029961000000000126,0.3117740000000001,0.009938000000000002,0.9970881889891867,0.8891527004345268,double,-0.91887
32,0.133333,walk,-0.01848295727313554,0.1665866538646116,-0.005760921747485354,0.19714618951555254,-0.17377454439497786,0.2530618357449979,0.0009601536245542427,0.000480076812303771,0.0031204992798845687,0.0050408065290563474,0.005760921747485354,0.0004800768122904462,-9.678639033332262,-4.598772569411826,-1.267633255976907,0.34568296389498576,0.11523687285256136,0.34580740977758395,-0.11491884451297098,0.40356411938663084,2.765463731276925e-05,0.027382999999999935,-0.15223300000000006,-0.928771,-0.0025610000000000355,0.159563,-0.918844,0.02994399999999997,0.3117960000000001,0.00992700000000002,0.9945000291707298,0.887946718427992,double,-0.918844
33,0.1375,walk,0.006959443244554051,0.194624430045571,0.004799616030722338,-0.11042941735839108,-0.15746183494746535,0.07790903820883976,0.00023998080151613449,0.0,0.0004799616030718175,0.00743940484758632,0.005039596832238472,0.003359731221502306,6.105687669231957,6.7285280011901545,2.5343263206641904,-0.17282765131704045,-0.11520921821544769,-0.6336783481672064,0.5756175470434294,-0.17310413132874508,0.6910617732689842,0.027354999999999796,-0.15304399999999996,-0.928789,-0.0025590000000002,0.15877300000000005,-0.91885,0.029913999999999996,0.311817,0.009939000000000031,0.9991056443574662,0.8846212822244233,double,-0.91885
34,0.141667,walk,-0.003119750419976201,0.18886489080875873,0.002879769618433422,-0.037797649550027713,-0.16859057408258343,-0.06744207249485075,0.0011999040076872533,0.0016798656107728119,0.002639788816894806,0.005279577633834572,0.004079673626120675,-0.0007199424046083555,-2.4188129744493185,-1.382178842527551,-0.4607262808468748,0.23036314042983544,0.4031354957458175,0.518317065952244,-0.5183170659351476,-0.23036314041703923,-0.9790433467988204,0.02737299999999987,-0.15382399999999996,-0.92879,-0.0025239999999999707,0.158003,-0.918865,0.02989699999999984,0.31182699999999997,0.009924999999999962,0.9944147508024053,0.8895651896214722,double,-0.918865
35,0.145833,walk,-0.0012001920307327777,0.18554968795005092,0.0009601536245808924,0.015120023180625948,-0.23324234515440703,0.1072902595293038,0.0016802688430365487,-0.000960153624607542,0.0009601536245796432,0.0064810369659143606,0.005760921747458705,0.0024003840614505653,0.46076773625622225,-0.7957760102515156,-0.4607815635747788,0.11530600944534207,-0.6337060094527969,-0.40317695446835367,0.28839638312044824,0.4035641193802277,0.7489981915647907,0.027384999999999993,-0.154601,-0.92879,-0.0024919999999999387,0.157254,-0.918859,0.02987699999999993,0.311855,0.009931000000000023,0.9963994239077769,0.8856942688318422,double,-0.918859
36,0.15,walk,0.018478521718234376,0.18286537077037454,-0.017758579313659328,0.19476287928777614,0.04407747193794422,0.2631053308330322,-0.003359731221492315,0.0007199424046016899,0.006959443244540729,0.006239500839899074,0.004079673626120648,0.0004799616030714012,4.722513498672218,-0.6441845883552613,-4.492136534254908,-1.209503255226508,0.4031907917468755,1.4397143316441277,-0.057964033121019,-0.403467271739394,-0.46086452084933105,0.02729400000000015,-0.15536000000000016,-0.9286869999999999,-0.002542999999999962,0.1565089999999999,-0.918783,0.029837000000000113,0.31186900000000006,0.009903999999999913,0.9870642655557262,0.8885094901078099,double,-0.918783
37,0.154167,walk,-0.021598272138210556,0.19846412287014886,0.006719462443011273,-0.1726013025432261,-0.2222893519946479,0.08916661876404228,0.0016798656107195142,-0.0011999040076872453,-0.000959923206143635,0.005999520038436227,0.006719462443011273,0.0,-9.61766111265776,3.7434010318632844,5.874260080794475,1.2094064872118608,-0.4607262808468763,-1.900495908491566,-0.057590785088276246,0.6334986361628564,-0.11518157021151926,0.027390999999999943,-0.1561920000000001,-0.928719,-0.0024279999999998747,0.15571000000000002,-0.918811,0.029818999999999818,0.3119020000000001,0.009907999999999917,0.9962055703622008,0.8859065415733234,double,-0.918811
38,0.158333,walk,-0.0031204992798945625,0.21027364378302887,-0.008881421027353268,-0.17315982419388562,0.004388933917267129,0.054574334780598435,0.005520883341360118,0.0002400384061785351,-0.0014402304368700894,0.006240998559735826,0.0036005760921716838,0.0,4.435375146019198,2.834738577263563,-3.7448112026799163,0.9219917740375903,0.34564148196490146,-0.11529218212348871,0.05796411937100303,-0.7486525086028774,0.0,0.02742700000000009,-0.15706700000000007,-0.9286880000000001,-0.0023889999999999745,0.1548489999999999,-0.9187740000000001,0.029816000000000065,0.31191599999999997,0.009913999999999978,0.9904821753453155,0.888851413810418,double,-0.9187740000000001
39,0.1625,walk,-0.017758579313632686,0.19414446844248545,-0.018958483321346573,-0.12429623800719307,0.012087558124519008,0.13061092884635891,-0.0016798656107728006,-0.0007199424046016899,-0.0002399808015357006,0.006719462443037916,0.005759539236866806,0.001199904007679752,-3.512858179442791,-3.8706924263363107,-2.418301486439476,-1.7280415051914835,-0.23037696443009936,0.2880368695306906,0.11482214622080394,0.5181097059503528,0.2879539255290979,0.027493999999999907,-0.15787899999999988,-0.92861,-0.002286999999999928,0.1540640000000001,-0.91869,0.029780999999999835,0.31194299999999997,0.00992000000000004,0.9969277874778253,0.885914955550765,double,-0.91869
40,0.166667,walk,-0.03743700503960759,0.18886489080875749,-0.03887688984881097,0.13996982090843366,-0.031852523960111116,0.3549419671827636,-0.0016798656107195142,0.0011999040076872453,0.004799616030717759,0.00743940484758632,0.0038396928245778704,0.0019198464122864374,-4.722444378683678,-1.2669972723129257,-4.780035163778349,1.2787705393164752e-11,0.4607262808468763,1.2094064872218513,0.1727723553031925,-0.4607262808468763,0.17277235531717897,0.027643000000000084,-0.15866099999999994,-0.928428,-0.0020999999999999908,0.153293,-0.91852,0.029743000000000075,0.31195399999999995,0.009908000000000028,0.9912920802107659,0.8866047210878092,double,-0.91852
41,0.170833,walk,-0.014402304368686735,0.20163226116177418,0.005520883341333468,0.0036119854864891665,0.04592760684336825,-0.09069646768303845,0.0012001920307327777,0.00024003840612523588,0.002640422467594539,0.0064810369659143606,0.004320691310600691,0.0014402304368696728,5.529212835074613,3.0646592302008377,10.657170712948728,0.6913244458598872,-0.23040460911234006,-0.5182893814506044,-0.2300450988170808,0.1154581099430677,-0.11512625430071152,0.027708000000000066,-0.15949999999999998,-0.92844,-0.0020130000000000425,0.15247100000000002,-0.918537,0.02972100000000011,0.311971,0.009902999999999995,0.9951494816558698,0.8877678876620345,double,-0.918537
42,0.175,walk,-0.008879289656843046,0.20686345092390768,0.0050395968322651495,0.007964705904518329,-0.30371779192525905,0.020169648715529166,0.0009599232061178308,0.0004799616030855586,-0.0014398848092150459,0.006239500839952402,0.003119750419976201,0.0,1.3254174974426975,1.255385112103077,-0.11549952221462,-0.05765990511517838,0.05757696111358869,-0.9791954108014418,-0.05796403310822169,-0.2882027575292768,-0.34562765463635253,0.027749000000000024,-0.16035999999999984,-0.928467,-0.0019499999999998963,0.15162200000000015,-0.9185580000000001,0.02969899999999992,0.311982,0.009908999999999946,0.9970069135375148,0.8892833766468329,double,-0.9185580000000001
43,0.179167,walk,-0.013918886489054816,0.18622510199186684,-0.015838732901370393,0.08347229546311093,0.06990520299879685,0.11351734883050374,0.0043196544276634255,-0.00023998080156942094,-0.001679865610751153,0.010799136069078634,0.0009599232061444676,0.009839212862971635,-1.2094064872118468,-4.952807519088268,-5.010398304208189,0.8062709914916226,-0.1727723553287686,-0.05759078510585718,1.094224916996935,-0.5183170659543392,2.361222189338043,0.02782499999999999,-0.16113700000000009,-0.928408,-0.001847000000000154,0.15085000000000004,-0.918451,0.029672000000000143,0.3119870000000001,0.009956999999999994,0.9922649869586875,0.8760286736378807,double,-0.918451
44,0.183333,walk,-0.025684109457532207,0.18458953432549666,-0.015602496399446162,0.12633895428810932,-0.04627438312180157,0.12846007000551157,0.0024003840614122566,-0.0007201152184290069,-0.00048007681229002974,0.005760921747485354,0.0036005760921716838,-0.0009601536245800595,-2.8241053692936586,-0.3925990557777687,0.05670583339515848,-0.4606985996762284,-0.11525070015832586,0.2879953908932123,-1.209364935572078,0.6338581099441225,-2.5922627190474525,0.02794199999999991,-0.16190900000000008,-0.928345,-0.0017160000000000508,0.150096,-0.9183899999999999,0.029657999999999962,0.3120050000000001,0.009955000000000047,0.9957472612367657,0.8890148856393316,double,-0.9183899999999999
45,0.1875,walk,-0.008879289656842987,0.20902327813776467,-0.01823854091671824,0.05823741096939641,-0.1965199346282297,0.1446570904280649,0.0016798656107728006,-0.0011999040076872453,0.003119750419966189,0.006479481641468495,0.00527957763378125,0.00191984641228727,4.032834125435374,5.86362942459035,-0.632600076139207,-0.1729105953058448,-0.11514009821411997,0.8638894245875247,0.17244057930960904,0.40292813573543673,0.6911447172707768,0.027986000000000066,-0.16278500000000018,-0.928256,-0.0016519999999999868,0.1492469999999999,-0.918306,0.029638000000000053,0.3120320000000001,0.009950000000000014,0.9937651158834613,0.8862070887247459,double,-0.918306
46,0.191667,walk,-0.0350371970242331,0.19438444924405487,-0.010319174466046365,-0.06059691108538988,-0.09611843624077078,-0.05288428834188809,0.0016798656107728006,0.0,0.0021598272138229706,0.006719462443037916,0.004319654427636783,0.0002399808015352843,-6.277395576527499,-3.5130378914590303,1.900495908488569,0.0,0.2879539255308961,-0.23036314042313835,0.057590785113851864,-0.2303631404234381,-0.403135495740817,0.028139000000000136,-0.16359500000000016,-0.9282039999999999,-0.0014779999999998683,0.1484549999999999,-0.9182619999999999,0.029617000000000004,0.31205000000000005,0.009942000000000006,0.995439663126531,0.8872604049232902,double,-0.9182619999999999
47,0.195833,walk,-0.04728756601056231,0.19923187710030862,0.000480076812303771,-0.005668241211882758,-0.20876857362478238,0.1362292903414172,0.0028804608737160275,0.0007201152184290069,-0.00048007681229002974,0.006961113778164833,0.005760921747485354,0.001920307249160119,-2.940559046166395,1.163568856517942,2.592235064414337,0.28818897334210897,0.1728553092724451,-0.6336783548038882,0.058005601326672186,0.34595951028530236,0.40334288229112664,0.02834800000000004,-0.16442200000000007,-0.928208,-0.0012520000000000309,0.14764900000000003,-0.9182560000000001,0.02960000000000007,0.3120710000000001,0.009951999999999961,0.9949872123195547,0.8850840315211721,double,-0.9182560000000001
48,0.2,walk,-0.04703623710099898,0.19870410367171829,0.0,-0.10431734997864915,0.19119590476098147,-0.07272109230184413,0.0004799616030855554,-0.0007199424046016899,0.0023998080153590875,0.006479481641468495,0.004079673626120648,0.0011999040076789193,0.060314113166145725,-0.12665549042244745,-0.11520921821544769,-0.5760737390521885,-0.34558618263275626,0.6911170692702459,-0.1155824662098241,-0.4034672717457892,-0.1728829473197022,0.02854599999999996,-0.1652530000000001,-0.9281980000000001,-0.0010290000000001687,0.14683800000000002,-0.918251,0.02957500000000013,0.3120910000000001,0.00994700000000004,0.9957482818123591,0.8876128291640938,double,-0.918251
49,0.204167,walk,-0.059035277177871825,0.19270458363328336,0.0011999040076606101,-0.16356120181395203,-0.04248271466058122,-0.1179578746928917,0.002159827213805084,0.0,0.0028797696184305077,0.006719462443037961,0.005039596832238506,0.0007199424046083555,-2.879539255309074,-1.4397696276541792,0.2879539255245061,0.4031354957330305,0.17277235531598129,0.11518157021152457,0.05759078511386308,0.2303631404170538,-0.11518157021131906,0.028801000000000077,-0.16605599999999998,-0.928191,-0.0007549999999998391,0.14605600000000007,-0.918253,0.029555999999999916,0.31211200000000006,0.009938000000000002,0.9940004799616209,0.8865697895606053,double,-0.918253
50,0.208333,walk,-0.03384541526642982,0.19995199231879093,-0.012241958713373064,0.005966614961229996,-0.10788006106202501,0.0758947024029466,0.0,-0.0009601536245542427,0.00048007681228961336,0.006961113778164833,0.005760921747485354,0.0007201152184348364,6.046534304234755,1.7396564295505457,-3.226563303176588,-0.5184414819503318,-0.23047374569232884,-0.5760184364236419,0.05800560132666136,0.1731456829685183,4.148195546829593e-05,0.028942000000000023,-0.16689299999999996,-0.928138,-0.0005850000000000577,0.14524700000000001,-0.918199,0.02952700000000008,0.31214,0.009939000000000031,0.9982108593555357,0.885502616747925,double,-0.918199
51,0.2125,walk,-0.026157907367390116,0.1979841612671166,-0.023038156947440578,0.10566602031538401,0.03651397345529464,0.09503483561241252,0.0016798656107728006,0.0004799616030855554,0.0004799616030718175,0.005759539236866806,0.004799616030722338,-0.0004799616030722338,1.844854307424933,-0.4722416730679944,-2.5908803057517407,0.4031354957458121,0.3456000066330206,-2.7648000430965475e-05,-0.2883548215258041,-0.23069491642980905,-0.28799539752989417,0.029058000000000028,-0.16771599999999998,-0.9280400000000001,-0.000452000000000119,0.14444199999999996,-0.9181050000000001,0.029510000000000147,0.31215799999999994,0.009935000000000027,0.996980307801228,0.8881290210043083,double,-0.9181050000000001
52,0.216667,walk,-0.06719462443005944,0.2027837772978123,0.007199424046070185,-0.06833886044825492,-0.18425641337169518,-0.0568439993691177,0.00047996160303226897,-0.0004799616030855554,0.002639788816894788,0.006959443244554051,0.004079673626094005,0.0014398848092158688,-9.848024253100382,1.1518157021107986,7.25643892332871,-0.2879539255436838,-0.23036314042983197,0.5183170659522363,0.287953925530896,-0.17277235532237414,0.46072628084667644,0.02933999999999992,-0.16856300000000002,-0.928059,-0.00014300000000000423,0.1436139999999999,-0.918129,0.029482999999999926,0.3121769999999999,0.009929999999999994,0.9954572367444275,0.887042395745163,double,-0.918129
53,0.220833,walk,-0.03888622179548616,0.20547287566009775,-0.014882381180990506,0.05013676664659379,-0.03144617582711386,0.004419498214511153,0.001440230436911313,0.0,-0.00024003840614480668,0.0064810369659143606,0.0050408065290563474,0.002160345655304509,6.795103848913408,0.6454868848500841,-5.300481331507604,0.2305014003550272,0.11520921821544768,-0.6912691365913569,-0.11483588061442385,0.23070881012058142,0.17293827318498317,0.02950800000000009,-0.169419,-0.927998,4.599999999999049e-05,0.142779,-0.918058,0.0294620000000001,0.312198,0.009939999999999949,0.9975665056287133,0.8864499446440699,double,-0.918058
54,0.225,walk,-0.03863690904729484,0.19606431485482767,-0.018718502519803795,0.05547847041481656,-0.059600485443085216,0.04699941461708112,0.0016798656107195142,0.0011999040076872453,0.003599712023038007,0.003359731221492315,0.009359251259901898,-0.008879289656827166,0.05983027314406592,-2.25787396334775,-0.9205954736772944,0.057507841086681326,0.2879539255308961,0.921466385693019,-0.7490534543849394,1.0363438278966992,-2.64930053086913,0.029676000000000036,-0.17023100000000002,-0.927905,0.00022100000000002673,0.14200099999999993,-0.918017,0.02945500000000001,0.31223199999999995,0.009888000000000008,0.9930839067011654,0.878901066454955,double,-0.918017
55,0.229167,walk,-0.06311495080391215,0.19678425725937607,0.0002399808015427777,-0.13330424082969702,-0.053435346911961584,-0.1186154681486813,0.002159827213858356,0.0007199424046016899,0.0021598272138229706,0.005999520038436227,0.004319654427636783,0.0011999040076789193,-5.874260080781686,0.1727723553031906,4.549672023361304,0.11518157022770369,-0.11518157021491597,-0.3455447106347576,0.6334986361756442,-1.2094064872246484,2.4188129744435027,0.029948000000000086,-0.17104799999999987,-0.927897,0.0005090000000000927,0.14119900000000007,-0.918013,0.029438999999999993,0.31224699999999994,0.009884000000000004,0.9947697396885375,0.8886774093797442,double,-0.918013
56,0.233333,walk,-0.06505040806526885,0.20619299087858006,0.0038406144983235695,-0.07122823415769804,0.007095049211849221,-0.09012056943791409,0.0007201152184290069,-0.000960153624607542,0.0024003840614497322,0.006240998559735826,0.005280844935208233,0.0024003840614497322,-0.4645840761777965,2.258457421796445,0.8642903736871793,-0.345586172690674,-0.4032875730218989,0.057742882291589394,0.05796411937100303,0.23072263743913807,0.28816131871598943,0.03022199999999997,-0.17191100000000015,-0.927903,0.0008059999999998624,0.140362,-0.918019,0.02941600000000011,0.31227300000000013,0.009884000000000004,0.9955271483887289,0.8869591363824041,double,-0.918019
57,0.2375,walk,-0.05639548836098118,0.1939044876409706,-0.0067194624430113176,0.0538640673618596,0.035305133170513196,0.05760243185949317,-0.00023998080156942253,0.0014398848092566758,0.0,0.005759539236866844,0.007439404847586369,0.000479961603072237,2.077014567863623,-2.9490048566377576,-2.5342157286620943,-0.23040461243062993,0.5759631470756494,-0.5760460910606542,-0.11554099420901952,0.5180129379357209,-0.46086452084893353,0.03045600000000004,-0.1727129999999999,-0.927875,0.0010650000000000936,0.13958499999999996,-0.917989,0.029390999999999945,0.31229799999999985,0.00988599999999995,0.9975670896206338,0.8854390269367607,double,-0.917989
58,0.241667,walk,-0.059035277177818146,0.19582433405325825,0.007199424046070185,-0.1851823028188663,-0.1688328169103437,-0.07587299501549742,0.0007199424046016899,0.0021598272138050696,0.003119750419966189,0.00671946244298463,0.004079673626120648,0.0011999040076789193,-0.6334986361499786,0.46072628084656814,3.3402655361366667,0.23036314042983236,0.1727723553031901,0.7486802063753746,0.23036314041703498,-0.8062709914724545,0.1727723553171782,0.030704999999999982,-0.1735199999999999,-0.9278919999999999,0.001338999999999979,0.13878600000000008,-0.918014,0.029366000000000003,0.312306,0.009877999999999942,0.9935631241743124,0.8879666270492304,double,-0.918014
59,0.245833,walk,-0.033605376860304584,0.20811329812774185,-0.01968314930389497,0.06011463807015364,-0.019180153221514284,0.043445202865107634,-0.00048007681225047176,0.0028804608737160275,0.004320691310609852,0.006961113778218132,0.00864138262122803,0.004800768122900298,6.104152740641753,2.9498233496119997,-6.452850060001232,-0.28805070015654366,0.1729797551394521,0.28827193726444117,0.05800560135225686,1.0949853564828083,0.8643456829624043,0.030843000000000176,-0.17437500000000017,-0.927792,0.0015080000000000648,0.13795499999999994,-0.917912,0.02933500000000011,0.3123300000000001,0.00988,0.9913083849486594,0.8810493194759516,double,-0.917912
60,0.25,walk,-0.07871370290373977,0.19750419966403104,0.006959443244554051,-0.01772662909002947,0.06413370398345651,-0.03510922048494584,-0.0011999040076872453,0.0009599232061711108,0.003359731221502306,0.006479481641468495,0.007919366450671875,0.005999520038396261,-10.825132239845248,-2.545979952894359,6.3937107147705765,-0.1727447073282392,-0.46089216883727263,-0.23061197242801654,-0.11558246622261492,-0.17327001933193045,0.2876774455233891,0.031166000000000027,-0.17519400000000007,-0.927807,0.001862999999999948,0.13716499999999987,-0.9179160000000001,0.02930300000000008,0.31235899999999994,0.009890999999999983,0.9938425708669781,0.8813208961583097,double,-0.9179160000000001
61,0.254167,walk,-0.057595392368615154,0.19750419966397909,-0.0033597312215189806,-0.09031063257512988,-0.013317942681355348,-0.09504941232550135,0.0007199424046016947,0.003119750419976201,0.003599712023038031,0.006239500839952402,0.007679385649155792,0.0007199424046075229,5.0679890893027935,-1.2469027490390598e-11,-2.476403759556777,0.46072628084688044,0.5183170659479488,0.057590785105765825,-0.05759078510105455,-0.05759078510105226,-1.2669972723275182,0.03140900000000002,-0.17600399999999983,-0.927778,0.0021290000000000475,0.1363740000000001,-0.9178989999999999,0.029279999999999973,0.31237799999999993,0.009879000000000082,0.9919706983841664,0.8846753014889749,double,-0.9178989999999999
62,0.258333,walk,-0.05928948631778349,0.20331253000481075,-0.0064810369659143606,-0.15098785397917852,-0.11193538890368995,-0.12052562026480781,-0.000960153624607542,0.0021603456552870205,0.005520883341334717,0.006721075372039597,0.006961113778191482,0.003120499279885402,-0.406647611418227,1.3942223573767798,-0.7492332559758468,-0.4032875730219,-0.23029399056389338,0.4611549011753925,0.11559638312222624,-0.17241283508504782,0.5762258462020828,0.03165199999999979,-0.17684199999999994,-0.927728,0.0024039999999998507,0.135556,-0.917859,0.02924799999999994,0.31239799999999995,0.009869000000000017,0.9899904016617116,0.8843650339378286,double,-0.917859
63,0.2625,walk,-0.07511399088073083,0.20470362371009987,0.008879289656842928,-0.09947295145178157,-0.035365412203788554,-0.006621296199478456,0.0004799616030855522,0.0021598272138050553,0.004319654427645913,0.005279577633781215,0.00623950083995232,-0.0007199424046075133,-3.7975772889242183,0.33383578240679246,3.686183494782138,0.34560000664580826,-0.000124416002391472,-0.28827187753510813,-0.34593178263939794,-0.1731732513172923,-0.9216322736963969,0.03196699999999986,-0.177686,-0.927747,0.002738999999999825,0.1347290000000001,-0.917899,0.02922800000000003,0.3124150000000001,0.009847999999999968,0.9919111477417288,0.8878448372151837,double,-0.917899
64,0.266667,walk,-0.0734341252700123,0.19246460283176722,0.000959923206144474,-0.02103191358136557,0.030303581173814414,-0.03891061331847944,-0.0026397888168906425,0.0035997120230617597,0.006719462443004657,0.005279577633781285,0.001919846412288948,-0.004799616030718207,0.4031354957327918,-2.93713004039662,-1.90049590849496,-0.7486802063777808,0.34554471064475945,0.5759078510580173,1.6860163373424787e-14,-1.0366341319086625,-0.9790433467988281,0.03226200000000001,-0.17847299999999988,-0.927723,0.003066999999999931,0.13393500000000014,-0.917923,0.029195000000000082,0.312408,0.00979999999999992,0.9865548865578826,0.8896851417339968,double,-0.917923
65,0.270833,walk,-0.06673067690830539,0.1975516082573254,-0.01032165146423793,-0.1709091215720975,-0.01767159524305898,-0.23756373072786768,-0.0012001920307327777,0.0024003840614655555,0.006240998559769554,0.007201152184396667,0.005520883341333468,-0.00048007681228961336,1.6090850604193223,1.221076674401866,-2.7080112026842045,0.3455585180407738,-0.28788477234666426,-0.11484970792969346,0.4612516924184783,0.864387164917071,1.0368553092723454,0.03253499999999998,-0.17928599999999983,-0.927654,0.003375000000000128,0.13313500000000011,-0.917882,0.029159999999999853,0.31242099999999995,0.009772000000000003,0.9886774110272849,0.8871355823085101,double,-0.917882
66,0.275,walk,-0.07295416366687248,0.20878329733624712,0.005999520038409543,-0.10764751294781698,0.09134441296299525,-0.03487135534532346,-0.0035997120230084256,0.004079673626093978,0.010079193664506434,0.006959443244500718,0.007439404847612913,0.003839692824573682,-1.4935173406688353,2.695389747761371,3.916767819209827,-0.5758387310476674,0.4029972557303598,0.9210931376858295,-0.05800550513461645,0.460408328840756,1.0366617799047906,0.032823999999999964,-0.18013900000000005,-0.927637,0.0037079999999998225,0.13229599999999997,-0.917891,0.029116000000000142,0.312435,0.009746000000000032,0.9809101678845441,0.8843953776142905,double,-0.917891
67,0.279167,walk,-0.09191264698824679,0.18814494840410376,0.00599952003838298,-0.057706177176404826,0.11932246729437773,-0.05144875567280603,-0.012958963282937077,0.012718982481420942,0.017038636909047344,0.005519558435350708,0.008639308855273623,0.0,-4.549672023367992,-4.952807519112906,-6.3745988063102976e-12,-2.246040619133358,2.073268263817378,1.6701327680683822,-0.345544710619155,0.28795392552453,-0.9214525616927535,0.03315299999999999,-0.18086999999999986,-0.9275909999999999,0.004113999999999951,0.131548,-0.917916,0.029039000000000037,0.31241799999999986,0.00967499999999999,0.9584995852614582,0.886163359440612,double,-0.917916
68,0.283333,walk,-0.06865098415746718,0.19851176188193292,-0.0038406144983235695,-0.0911786778365074,-0.03848894047657593,-0.13687812383388023,-0.010561689870416465,0.00984157465193416,0.004080652904465045,0.005520883341306819,0.004560729716752576,0.0004800768122904462,5.583692470182332,2.488433384020442,-2.362010210443241,0.575437689035192,-0.6906883892191021,-3.110413827312119,0.0003180283139968653,-0.97901563574677,0.1152368728493629,0.03339499999999984,-0.18165600000000004,-0.927558,0.004422999999999844,0.13073999999999986,-0.917898,0.028971999999999998,0.3123959999999999,0.009660000000000002,0.9749967995006878,0.891438152994336,double,-0.917898
69,0.2875,walk,-0.06407487401008369,0.21118310535157114,0.005279577633781285,-0.12729006802525353,-0.020448816222373066,-0.04338828090789974,-0.010799136069078707,0.024958003359703038,0.012718982481401376,0.006239500839952402,0.005759539236866844,0.00311975041996621,1.0981785810855567,3.0408791623801994,2.1886710180237356,-0.05698252907661221,3.6276526776503393,2.073033255804267,0.17245440332267523,0.2876912695258639,0.6334709881631339,0.03361700000000001,-0.18243200000000015,-0.927527,0.0047159999999999425,0.1298839999999999,-0.9179069999999999,0.028901000000000066,0.31231600000000004,0.009620000000000073,0.9499640188657641,0.8887227447204171,double,-0.9179069999999999
70,0.291667,walk,-0.062395008399363336,0.19822414206863143,-0.01367890568753859,0.049283808459552894,0.13267629552344648,0.005193760823609622,-0.013198944084506324,0.011519078473733534,0.009119270458363223,0.006479481641468453,0.003839692824577845,0.001679865610751142,0.4031354957332227,-3.1099023957138514,-4.549672023354867,-0.5759078510745378,-3.225083965915383,-0.8638617765870231,0.05759078510104359,-0.46072628084688855,-0.3455447106347629,0.03382200000000002,-0.1832100000000001,-0.9274319999999999,0.005003000000000091,0.1290739999999999,-0.917843,0.028818999999999928,0.312284,0.009588999999999959,0.96708333807921,0.8912486807528861,double,-0.917843
71,0.295833,walk,-0.074891982717203,0.19323091694669806,-0.006240998559762475,-0.08201140673852211,0.089164060777656,-0.13260118850779362,-0.018963034085439312,0.013442150744132493,0.010081613058089375,0.0033605376860197985,0.00600096015363724,-0.00048007681228961336,-2.9997537968890198,-1.1985657997919748,1.7853833720057872,-1.383602976700188,0.4616112026881801,0.23099918380368492,-0.7486663359214238,0.5187871649206417,-0.5184691365916356,0.034054999999999946,-0.18395899999999998,-0.927364,0.005328999999999917,0.12829400000000002,-0.917819,0.02872600000000003,0.312253,0.009544999999999915,0.9577728694305507,0.8930590361526981,double,-0.917819
72,0.3,walk,-0.06407487401008369,0.19918406527475188,-0.007679385649155792,-0.09179685769045552,0.12398016014333306,-0.07063368208215974,-0.02519798416127246,0.016078713702913278,0.017038636909047344,0.004799616030749013,0.003839692824551253,0.0007199424046075229,2.5958984178352233,1.428641307428332,-0.34518528663146747,-1.4962683167346253,0.63272449214802,1.6695521600571175,0.3453511746410422,-0.5186626659673624,0.287981573529432,0.03421699999999994,-0.18472199999999983,-0.927261,0.005616000000000065,0.12748000000000004,-0.9177839999999999,0.028600999999999877,0.31220199999999987,0.009477000000000069,0.9426565273536749,0.8949157875703951,double,-0.9177839999999999
73,0.304167,walk,-0.07487401007921468,0.21214302855773942,0.005999520038409543,-0.058809434659805884,-0.04542612254474067,0.047461733395626926,-0.03167746580274058,0.01607871370285978,0.01607871370290349,0.005759539236866767,0.004319654427663397,0.0014398848092150266,-2.5915853297650373,3.109902395725328,3.282674751035573,-1.5549511978565076,-1.2838702183615148e-11,-0.2303631404232892,0.23036314041702574,0.115181570221296,0.17277235531737417,0.03439700000000001,-0.18553900000000012,-0.927219,0.005952000000000179,0.126614,-0.917803,0.02844499999999983,0.3121530000000001,0.00941599999999998,0.9350104301453288,0.8936033321007846,double,-0.917803
74,0.308333,walk,-0.07537205952950678,0.19659145463271785,-0.0007201152184290069,-0.13161109786727201,0.13564873326565566,-0.13754329564473067,-0.02880460873737347,0.014882381180990506,0.016562650024004155,0.005040806529003048,0.002880460873742677,0.001920307249160119,-0.11955099622949959,-3.732975018008056,-1.6129705369271592,0.6895960310530737,-0.28716575176890835,0.11616330319267015,-0.17252345363987476,-0.34546172681726334,0.1153198367607038,0.03459100000000004,-0.18629600000000002,-0.927147,0.0062869999999999315,0.1258070000000001,-0.917792,0.028304000000000107,0.31210300000000013,0.009355000000000002,0.9393206943122947,0.8962581779462405,double,-0.917792
75,0.3125,walk,-0.07655387568993521,0.1917446604271655,0.006239500839925759,-0.17661840370883355,0.16430977670804459,-0.07491390038003323,-0.0410367170626696,0.018478521718287785,0.019918406527477853,0.0023998080153745066,0.002879769618433422,-0.0009599232061436414,-0.2836131894476706,-1.1631375583279022,1.6701742400659483,-2.9354711603782575,0.8630046885762658,0.8053171354628551,-0.6337889401556411,-0.0001658880031808953,-0.6912000132718447,0.03473899999999985,-0.1870179999999999,-0.92709,0.006615999999999955,0.12502000000000013,-0.917822,0.028122999999999898,0.31203800000000004,0.009267999999999943,0.9179733981027987,0.9008707097445616,double,-0.917822
76,0.316667,walk,-0.04847612191025597,0.2063834893208754,-0.0064794816414685385,-0.029734103881868503,0.03520227811356642,0.10104708151777562,-0.028557715382764796,0.013918886489054908,0.0371970242380609,0.005519558435350708,0.002879769618406779,0.0016798656107511643,6.738121857374466,3.51303789145908,-3.0523116106058006,2.994720825511129,-1.0942249170225349,4.146536527617745,0.7486802063777823,-6.393852696582419e-12,0.6334986361638639,0.03482199999999991,-0.1878200000000001,-0.9269080000000001,0.006841000000000097,0.12417199999999995,-0.917788,0.02798099999999981,0.31199200000000005,0.009120000000000017,0.9184712538571502,0.8980528366990098,double,-0.917788
77,0.320833,walk,-0.06649063850218016,0.19611137782046736,-0.009841574651960809,-0.007760491242921538,0.1790835221292564,-0.025801635255604808,-0.03528564570328783,0.018722995679314076,0.034805568891022785,0.003600576092145034,0.0038406144983235695,0.0009601536245800595,-4.324175850197834,-2.465701272301498,-0.8070314475497522,-1.6149616707928534,1.1531707129762758,-0.5740411298699262,-0.4606294630834547,0.23063967352779405,-0.17275851804395206,0.034952000000000094,-0.18855900000000014,-0.9267219999999999,0.007133000000000056,0.1233709999999999,-0.917743,0.027819000000000038,0.31193000000000004,0.00897899999999996,0.9116972539477379,0.9012911742640677,double,-0.917743
78,0.325,walk,-0.08303335733140264,0.19582433405325694,0.008879289656842928,-0.2081861092482641,0.037607448426131854,-0.12412767267255828,-0.0014398848092033701,0.005279577633781215,0.11615070794336366,0.005519558435350634,0.0023998080153744745,-0.003119750419967001,-3.9699349242194275,-0.06888499333103401,4.492648022271081,8.12233282795397,-3.226162237948826,19.521271670827993,0.460518920855672,-0.34576589463620927,-0.979098642799863,0.0352920000000001,-0.1893530000000001,-0.926275,0.00750200000000012,0.12256500000000004,-0.917793,0.02778999999999998,0.31191800000000014,0.00848199999999999,0.8062007470201341,0.9038813463787849,double,-0.917793
79,0.329167,walk,-0.05903527717781854,0.19678425725943066,0.0026397888168906425,-0.13588866275886513,0.005913469158223079,0.049365970185727054,-0.04391648668107638,0.02831773458124866,0.06191504679625654,0.003839692824577896,0.002159827213805084,0.000479961603072237,5.7590785105793705,0.2303631404304593,-1.4973604127555364,-10.193568963732481,5.5287153701626055,-13.01551743391107,-0.40313549574579977,-0.05759078511384497,0.863861776587295,0.035355000000000025,-0.19005500000000008,-0.926028,0.007764000000000104,0.12175399999999992,-0.917802,0.02759099999999992,0.311809,0.008225999999999956,0.8649688830716967,0.9103541167456214,double,-0.917802
80,0.333333,walk,-0.055208833413334685,0.19011041766680348,-0.01968314930389497,0.0438100623473079,0.12010998245846814,0.10011143296540238,-0.048007681228991315,0.03624579932789537,0.0636101776284204,0.0016802688429832496,0.0019203072491617847,0.0002400384061452231,0.9184934624301139,-1.6019778186815121,-5.358362486986461,-0.9820438185105453,1.9030400255993054,0.40689650315983206,-0.5183446907332321,-0.057493990552880216,-0.05759078178756931,0.035385,-0.19069599999999998,-0.925681,0.008000999999999925,0.12097000000000002,-0.917719,0.027384000000000075,0.311666,0.007962000000000025,0.8540857355630664,0.9161084852568606,double,-0.917719
81,0.3375,walk,-0.06647468202545731,0.1859851211902962,-0.010799136069105207,-0.03200842513397542,0.1307369825720297,-0.027005549912014613,-0.044396448284161345,0.03839692824572516,0.06935445164386822,0.00455963522917953,0.0026397888168906074,-0.0007199424046083459,-2.703587379919016,-0.9899919550053389,2.1319926169401713,0.8666265766330555,0.5162296419077922,1.3785154824688681,0.6909926532748399,0.172661763313851,-0.2303769644237009,0.03547699999999998,-0.191311,-0.925347,0.008296999999999999,0.12020600000000004,-0.917677,0.027179999999999982,0.31151700000000004,0.007670000000000066,0.8485678674035311,0.9144373010934546,double,-0.917677
82,0.341667,walk,-0.07199424046075562,0.18670506359495365,-0.005999520038409623,-0.14739338938467522,0.15675688500834578,-0.03818503524279072,-0.04799616030717041,0.045116390688763636,0.08831293496520294,0.0035997120230617597,0.0016798656107728119,0.00239980801535952,-1.3245880574270066,0.17277235532936205,1.1518157021107778,-0.863861776580054,1.6125419829706058,4.54967202335849,-0.23036314041703276,-0.23036314041703887,0.7486802063757819,0.03557699999999997,-0.1919010000000001,-0.9249539999999999,0.008612000000000064,0.11943499999999996,-0.917642,0.026964999999999906,0.31133600000000006,0.007311999999999985,0.816376785273175,0.9191449869586736,double,-0.917642
83,0.345833,walk,-0.059049447911658254,0.19587133941428883,-0.019203072491591196,-0.07693735661859707,-0.003971402288136541,0.07281060956082509,-0.04656745079213331,0.0566490638501927,0.10393662986077791,0.005520883341306819,0.00048007681227712134,0.001680268843014896,3.1072473713627824,2.200258237958516,-3.1693596863133853,0.342945154833678,2.7682844842604553,3.7502868208293223,0.4611549011629999,-0.2879953909015098,-0.1727170360884838,0.03562899999999991,-0.19248100000000012,-0.924441,0.008880999999999917,0.11862099999999998,-0.917555,0.026747999999999994,0.3111020000000001,0.006885999999999948,0.7879958927599298,0.9214885853082433,double,-0.917555
84,0.35,walk,-0.08087353011759867,0.17518598512116668,0.000959923206144474,-0.10509511396560794,0.03317044850111663,0.04294447239607331,-0.04607631389488147,0.057595392368615154,0.10919126469882484,0.0021598272138583707,0.0023998080153478634,-0.0002399808015361185,-5.2373607405664835,-4.96408790331708,4.838731868907076,0.1178634262663406,0.22710067636728087,1.2610114802128538,-0.8065889434721544,0.46069863284635304,-0.4608230488483382,0.03577399999999997,-0.192971,-0.92399,0.009227000000000096,0.11790100000000003,-0.91756,0.026546999999999876,0.31087200000000004,0.006429999999999936,0.7803855132108185,0.9303041366437497,double,-0.91756
85,0.354167,walk,-0.07199424046075466,0.1749460043196482,-0.008159347252214599,-0.07511658980755223,0.12474863472601952,0.05764278636322149,-0.04679625629948254,0.06863450923926237,0.1180705543556505,0.0033597312214922927,0.0002399808015427761,-0.0002399808015361153,2.1308590489186323,-0.05759078510162266,-2.188449834019439,-0.17277235531583002,2.649176114866122,2.1308590489142296,0.2879539255180976,-0.5183170659479411,7.675537338210256e-16,0.035878999999999994,-0.19341399999999997,-0.9234640000000001,0.009541000000000022,0.11717300000000008,-0.917527,0.026337999999999973,0.31058700000000006,0.005937000000000081,0.7593917356872617,0.935001951332121,double,-0.917527
86,0.358333,walk,-0.06505040806532214,0.18795007201156977,-0.01800288046088507,-0.013038154280752593,0.015432769467833509,0.14112898589492126,-0.05880940950553302,0.08473355736919046,0.12986077772443577,0.004560729716752576,0.0,0.0024003840614497322,1.666786460737521,3.1214756821703182,-2.36282602224447,-2.88361814835585,3.8643898535593073,2.8301064255365485,0.2882857645848014,-0.057604609107723456,0.6337889733523393,0.035905000000000076,-0.19384400000000013,-0.922848,0.009831000000000145,0.11638999999999988,-0.917442,0.02607399999999993,0.310234,0.005406000000000022,0.72360382709866,0.9373502614203969,double,-0.917442
87,0.3625,walk,-0.0703143748499828,0.17086633069350324,-0.009839212862960876,-0.20956105147006862,0.05002896745155647,-0.00943698967961656,-0.06191504679622532,0.08615310775137995,0.14014878809695291,0.004079673626094032,0.0014398848092300326,0.00119990400767976,-1.2632509682411075,-4.099769934741212,1.9591234936223274,-0.7452933263000534,0.3406648385383974,2.468924975406096,-0.11544422621995355,0.34554471063835873,-0.2880921655315525,0.03594000000000008,-0.19419699999999995,-0.922223,0.010140999999999956,0.11568400000000012,-0.917396,0.025799000000000127,0.3098810000000001,0.004827000000000026,0.7070385226307985,0.9442472838437606,double,-0.917396
88,0.366667,walk,-0.07199424046075466,0.16558675305977302,-0.008879289656816284,-0.17828811871652717,0.1510432909439732,0.029213337034841916,-0.07007439404851902,0.09983201343891739,0.11159107271418205,0.0033597312214922927,0.000479961603058909,-0.0007199424046075133,-0.40313549574558183,-1.2669972723134568,0.23036314042346653,-1.9580866936149832,3.282674751028877,-6.853303427590749,-0.17277235531599092,-0.23036314042983352,-0.4607262808464743,0.03594799999999987,-0.19447100000000006,-0.921721,0.010454999999999881,0.11499599999999999,-0.917362,0.025492999999999988,0.30946700000000005,0.004359000000000002,0.7244731354193229,0.9506277296637256,double,-0.917362
89,0.370833,walk,-0.08377340374463622,0.16346615458471703,-0.0007201152184556565,-0.1330610837128208,0.13625260887777238,0.12497802277932754,-0.06216994719155282,0.10609697551609533,0.16514642342774857,0.005520883341360118,0.0,0.0038406144983194053,-2.8274515803844356,-0.5090250780259228,1.958515227642972,1.8973708250038877,1.5038315115645557,12.855341025820088,0.5187595102899241,-0.11520921820905153,1.0947088101120777,0.036038000000000014,-0.19470999999999994,-0.92103,0.010827000000000142,0.11431500000000006,-0.917343,0.025210999999999872,0.309025,0.003686999999999996,0.6568325169248799,0.9519210659896262,double,-0.917343
90,0.375,walk,-0.08447324214060714,0.17350611951044714,0.025437964962815238,-0.2745508498618063,0.0434766317463682,0.1569570640656185,-0.08063354931602924,0.10439164866809832,0.15934725221982324,0.004319654427610168,-0.000959923206144474,0.00119990400767976,-0.16794777921068418,2.40939883026882,6.2774370485411675,-4.430910037071402,-0.4092457038629764,-1.3916897547217106,-0.2882718775497857,-0.2303631404234412,-0.6337198201679051,0.03605400000000003,-0.194998,-0.9204720000000001,0.011196999999999901,0.11358800000000002,-0.917444,0.02485700000000013,0.308586,0.0030280000000000307,0.6552338458504239,0.9620786220404751,double,-0.917444
91,0.379167,walk,-0.06311495080391258,0.15358771298295598,0.01079913606910535,-0.3187281558794294,0.21751379824931677,0.11606722168721982,-0.07655387568993521,0.1190304775618082,0.18046556275498085,0.004559635229232877,0.0,0.0,5.125579874416771,-4.780035163784803,-3.513037891459076,0.9790433467948291,3.513037891459077,5.067989089310712,0.05759078512664037,0.2303631404234412,-0.2879539255291017,0.035997999999999974,-0.19514199999999993,-0.9197649999999999,0.011479000000000017,0.11294800000000005,-0.917489,0.024518999999999957,0.30809,0.0022759999999999447,0.6177676324384527,0.9696406079512785,double,-0.917489
92,0.383333,walk,-0.08137301968317066,0.15842534805571398,-0.002400384061438906,-0.10437048122822931,0.08365216799316813,0.14667451387285682,-0.10633701392222056,0.1370619299088091,0.20355256841094513,0.0040806529044488055,0.000480076812303771,0.0007201152184348364,-4.382637753062427,1.1612182123758996,-3.1683917740144616,-7.149097031273481,4.32824108185331,5.541768040317873,-0.11497415381278708,0.11523687285256136,0.17285530927384443,0.03589400000000009,-0.19523099999999993,-0.918907,0.01183500000000004,0.11229,-0.9174760000000001,0.024059000000000053,0.30752099999999993,0.00143099999999996,0.5542572326662858,0.9787376287418288,double,-0.9174760000000001
93,0.3875,walk,-0.10751139908807308,0.14278857691382207,0.04391648668104915,-0.13911274664233816,0.39811191773756716,0.19869179341944737,-0.09839212862971403,0.12838972882168181,0.19198464122870074,0.005039596832265082,0.00023998080151613289,0.0019198464122864246,-6.272709240437298,-3.752524872064264,11.115159765415816,1.9066199406063045,-2.0811617679690975,-2.7760804373036487,0.23012813242531055,-0.05761843311438355,0.28791245352809675,0.035932000000000075,-0.19529099999999988,-0.9182899999999999,0.012304000000000093,0.11169600000000002,-0.917651,0.023627999999999982,0.3069869999999999,0.0006389999999999452,0.5815935126681226,0.9846129422612413,double,-0.917651
94,0.391667,walk,-0.07943364530839528,0.1528677705783543,0.019678425725948395,-0.3190398627770611,0.17076854502907543,0.14339803826303238,-0.09335253179745018,0.12550995920327673,0.20158387329013722,0.00599952003838298,0.0007199424046283379,0.0016798656107511643,6.7381218573741215,2.418812974449791,-5.81666929568056,1.2094064872243526,-0.6910894212635224,2.30363140423243,0.23036314041706357,0.11518157022131216,-0.05759078510565436,0.035874000000000184,-0.19540499999999983,-0.917532,0.012660000000000116,0.1110620000000001,-0.917726,0.023214000000000068,0.30646699999999993,0.00019400000000002748,0.5728035315572749,0.9895471287534204,double,-0.917532
95,0.395833,walk,-0.08113298127699213,0.14114258281325792,0.0026404224675907915,-0.20123718109365793,0.07192127414700673,0.15959571964953045,-0.13658185309650533,0.1423427748439374,0.22035525684109494,0.0024003840614655555,0.0012001920307061283,-0.0009601536245792267,-0.4079058974068292,-2.814495382884389,-4.0897751460291865,-10.376697383354566,4.0405222373165275,4.505852988708044,-0.863930863398325,0.11527835479543688,-0.6337060094408039,0.03564300000000009,-0.19540000000000002,-0.916625,0.01300800000000013,0.110479,-0.9177409999999999,0.02263499999999996,0.305879,0.0011159999999998949,0.49591080922348557,0.9952495030856701,single,-0.916625
96,0.4,walk,-0.07391408687304359,0.08591312694986267,-0.047516198704084224,0.4567499471571977,0.6744798330206143,0.16352510433790887,-0.18214542836571834,0.16678665706746026,0.2553395728341711,0.00743940484758627,-0.001199904007660594,0.0031197504199661683,1.7323960652624166,-13.25400908648784,-12.036626151109823,-10.934383313945922,5.866062448649552,8.395564193202752,1.2092682472091858,-0.5759769710503249,0.9790986427994633,0.03519200000000011,-0.195063,-0.915363,0.013346999999999998,0.11011599999999999,-0.9175300000000001,0.021845000000000114,0.305179,0.00216700000000003,0.47833000000000003,0.9864069710679856,single,-0.915363
97,0.404167,walk,-0.1221502279817844,0.19798416126706464,0.0691144708423222,-1.0344584296434616,-0.38678726362464866,0.041864427128839934,-0.18670506359495365,0.15718742500596444,0.22990160787137173,0.003839692824577896,0.0014398848092033894,-0.0002399808015361185,-11.57574780627336,26.894896644397075,27.989121561412784,-1.0942249170231173,-2.3036314042466706,-6.104623221214181,-0.8638617765798884,0.6334986361564671,-0.8062709914812349,0.03492300000000004,-0.195233,-0.914693,0.013872000000000106,0.10929700000000009,-0.917819,0.02105099999999993,0.3045300000000001,0.003126000000000073,0.46874,0.9931536506005034,single,-0.914693
98,0.408333,walk,-0.07897263562165181,0.0741718674988273,-0.04008641382621894,0.2685082613996048,0.8196732660830974,0.031675221292058756,-0.15290446471435387,0.16898703792607717,0.23019683149303907,0.0050408065290563474,0.0007201152184290069,0.0007201152184348364,10.364280451304023,-29.719705657282105,-26.212406305458728,8.113441882045068,2.832360278471607,0.07086500760137773,0.2883134192219036,-0.17277234536110947,0.23045991837996982,0.03461499999999984,-0.19483800000000007,-0.913567,0.014221999999999957,0.10899099999999995,-0.9176489999999999,0.020392999999999883,0.303829,0.004081999999999919,0.45918,0.9914289145120527,single,-0.913567
99,0.4125,walk,-0.0935925125990196,0.14398848092151123,0.013678905687538772,-0.19001935155727429,-0.021893669099236353,0.20025223692696797,-0.1708663306935565,0.17494600431965054,0.24430045596352384,0.004319654427610168,-0.00023998080151613608,-0.0014398848092150459,-3.508489795384658,16.75464684969626,12.902644471744185,-4.310502994769074,1.4300375314551026,3.384599104987965,-0.17306265933433734,-0.23040461241784221,-0.5183585379529385,0.03429299999999991,-0.19470900000000002,-0.9126059999999999,0.01462999999999992,0.1083900000000001,-0.917712,0.019662999999999986,0.3030990000000001,0.005106000000000055,0.44894,0.992400607951422,single,-0.9126059999999999
100,0.416667,walk,-0.10319174466040969,0.12455003599715725,0.00767938564915569,-0.2969299202355661,0.173881291827924,0.07553120882571242,-0.20014398848086706,0.18310535157188945,0.24622030237580786,0.00455963522917953,0.000479961603058909,0.0019198464122872573,-2.3036314042212656,-4.664853593557435,-1.4397696276417176,-7.02607578289185,1.9580866936018348,0.4607262808456925,0.05759078511383733,0.17277235530958474,0.806270991481228,0.03388900000000006,-0.1944650000000001,-0.911612,0.015078999999999843,0.10787299999999989,-0.917736,0.018810000000000215,0.302338,0.006124000000000018,0.43876000000000004,0.9917157366701883,single,-0.911612
101,0.420833,walk,-0.11305808929431346,0.12578012481996365,0.019923187710046853,-0.41796523375259775,0.217342375473572,-0.00895917409199026,-0.2213154104656958,0.19323091694669806,0.22971675468074865,0.005520883341360118,0.0002400384061518855,0.0012001920307244498,-2.3683016403993684,0.2952685604432059,2.9389827318509734,-5.081954389061144,2.4305245738858847,-3.9614852844597217,0.23073646475770224,-0.05759078178277085,-0.17274469072558976,0.03343800000000008,-0.19418400000000013,-0.910738,0.015573000000000059,0.10734999999999995,-0.917814,0.01786500000000002,0.3015340000000001,0.007075999999999971,0.42924,0.9905751168271387,single,-0.910738
102,0.425,walk,-0.1190304775618082,0.12598992080630902,0.019678425725921753,-0.459724061733197,0.2684082016265034,-0.014317046619577677,-0.23662107031435972,0.19558435325174342,0.23038156947444396,0.0023998080153745066,0.000959923206144474,-0.0021598272138225686,-1.4332585235168653,0.0503470089621743,-0.058738177135853574,-3.6730645185178794,0.5647795308484228,0.15954278706391198,-0.7489981583838803,0.17275853131571697,-0.8063401114823705,0.0329480000000002,-0.193894,-0.90986,0.016079000000000176,0.10682900000000006,-0.917905,0.016869000000000023,0.3007230000000001,0.008044999999999969,0.41955,0.9943861815664086,single,-0.90986
103,0.429167,walk,-0.12287017038633118,0.1154307655387449,0.00767938564915569,-0.3306641397717533,0.24383654271454983,-0.02114840154803101,-0.2584593232541364,0.2308615310775431,0.25893928485720946,0.004799616030695663,-0.0007199424046016851,0.0011999040076789112,-0.9214525616805712,-2.533994544651798,-2.8795392552834103,-5.240761444630792,8.465845410559012,6.85330342758946,0.5759078510489891,-0.4031354957394159,0.8062709914810305,0.03238300000000005,-0.19341299999999984,-0.908813,0.01661099999999993,0.10634500000000013,-0.917932,0.01577200000000012,0.29975799999999997,0.009118999999999988,0.40881,0.9916675999296424,single,-0.908813
104,0.433333,walk,-0.12986077772446575,0.11689870379263703,0.020883341334627745,-0.2855078957601671,0.16976905322183342,0.047973411012406375,-0.27364378300531444,0.22443590974553707,0.25636101776284176,0.005280844935181583,0.0009601536245808924,0.0012001920307252827,-1.678014243431245,0.35236155878351666,3.169456477549699,-3.644853516845424,-1.5423959030259293,-0.61888312394808,0.11551341922369661,0.4032875730155008,6.913659298402127e-05,0.031784000000000034,-0.19296500000000005,-0.9078320000000001,0.017174000000000023,0.10586200000000001,-0.918014,0.014610000000000012,0.29882700000000006,0.010181999999999913,0.39818,0.990833381951213,single,-0.9078320000000001
105,0.4375,walk,-0.12455003599710562,0.11159107271416854,0.009839212862960876,-0.35644294765696927,0.24406291956839427,-0.028680290095809313,-0.3026157907367324,0.22390208783299206,0.24742020638349088,0.0033597312214923374,0.0,0.0004799616030714044,1.2744760564819186,-1.273729560467607,-2.650378802895832,-6.952725637489348,-0.12810701044996514,-2.145623081197727,-0.46103040885271335,-0.23041843642450152,-0.17284147531890626,0.031042000000000014,-0.19249699999999992,-0.906842,0.017706999999999917,0.10539700000000007,-0.918053,0.013335000000000097,0.297894,0.011210999999999971,0.38788999999999996,0.9943435982626632,single,-0.906842
106,0.441667,walk,-0.13174946004317586,0.10319174466041106,0.020878329733609004,-0.35571307945902114,0.18938993834255183,0.006716169745411129,-0.3078953683705137,0.22774178065751668,0.25437964962803084,0.003839692824577896,0.0009599232061178308,-0.0019198464122864502,-1.7277235531726138,-2.0156774787035108,2.6491761148663766,-1.2669972723257295,0.9214525616809798,1.6701327680681528,0.11518157021491753,0.23036314041704734,-0.5759078510578037,0.030308,-0.19197799999999998,-0.9058689999999999,0.018271999999999844,0.10497100000000004,-0.918148,0.012036000000000158,0.296949,0.01227900000000004,0.37721000000000005,0.992668465410842,single,-0.9058689999999999
107,0.445833,walk,-0.1397023523763999,0.10081613058091375,0.023043686989941414,-0.35509587554183514,0.29434859660534113,-0.03237916841588733,-0.3341334613538307,0.23355736917909553,0.2606817090734516,0.0019203072491617847,0.0038406144983235695,-0.001920307249160119,-1.9089995999097558,-0.5702386172581152,0.5197689045445051,-6.298150019999283,1.3959645995148444,1.5127363047097402,-0.46072625430055447,0.6914765463767971,-0.00011061854864828558,0.029498000000000024,-0.19142499999999996,-0.904879,0.018861999999999934,0.10456699999999997,-0.9182520000000001,0.01063600000000009,0.2959919999999999,0.01337300000000008,0.36627,0.9921603784836446,single,-0.904879
108,0.45,walk,-0.1394288456923298,0.09191264698824557,0.01727861771057366,-0.38519937116885117,0.3611363377011964,-0.06169631596080127,-0.3616510679145461,0.24742020638348844,0.25941924646028086,0.004319654427663397,0.0014398848092300135,-0.001679865610751142,0.06563635326856508,-2.136665129030025,-1.383505946572525,-6.60369727878934,3.326814783871563,-0.30296678981779374,0.5757972590596578,-0.5761290350596443,0.05770137710798541,0.028572000000000042,-0.19077699999999997,-0.90387,0.01946099999999995,0.10419,-0.918331,0.009111000000000091,0.294967,0.014461000000000057,0.35539000000000004,0.9919111477416847,single,-0.90387
109,0.454167,walk,-0.15670746340293218,0.09623230141585697,0.02327813774898351,-0.4319435915276712,0.24009070974953883,-0.11659627637947574,-0.38924886009119786,0.24310055195582828,0.25725941924646256,0.005519558435350708,-0.0014398848092300326,0.00119990400767976,-4.146536527622385,1.0366341318961894,1.439769627648161,-6.622940287173486,-1.0366341319078924,-0.5183170659511187,0.28795392553091376,-0.6910894212767129,0.6910894212697188,0.027603000000000044,-0.19016499999999992,-0.902895,0.02013700000000007,0.10378300000000007,-0.918423,0.007465999999999973,0.293948,0.015527999999999986,0.34472,0.9902848109738827,single,-0.902895
110,0.458333,walk,-0.15266442630822863,0.09193470955353383,0.012722035525676837,-0.38597732481651187,0.3552216751467279,-0.15149578844470216,-0.41598655784925187,0.2705232837254199,0.2570811329812758,0.005040806529003048,-0.0012001920307061283,0.0014402304368696728,0.9704841801976829,-1.031587100893694,-2.5338699527860458,-6.418074353829571,6.582508826114162,-0.042795550932978585,-0.1149188445385644,0.057535472521340406,0.057687573017261816,0.02650600000000014,-0.18942099999999984,-0.901877,0.02079399999999998,0.10339500000000013,-0.91847,0.005712000000000161,0.29281599999999997,0.01659299999999997,0.33407000000000003,0.9910364232268252,single,-0.901877
111,0.4625,walk,-0.17014638828889928,0.10223182145429187,0.01823854091671812,-0.2834795359179999,-0.0006792603505160439,-0.1324243644642623,-0.4670026397888141,0.29109671226299483,0.26541876649867874,0.0019198464122889224,0.0028797696184333834,-0.0038396928245745146,-4.195335248541039,2.471109167448514,1.3238553854190642,-12.242880235076042,4.937227870788283,2.0008719744187426,-0.7489705103705548,0.9791124667961315,-1.267080216329289,0.025268999999999986,-0.18863399999999997,-0.900847,0.021510999999999836,0.1029810000000001,-0.918562,0.00375800000000015,0.29161500000000007,0.017715000000000036,0.32284999999999997,0.991384425554536,single,-0.900847
112,0.466667,walk,-0.16966642668586926,0.09239260859133236,0.02399808015361185,-0.4538890980226359,0.1281109127820426,-0.1542979536184461,-0.5301175905927862,0.311975041996661,0.26493880489561006,0.0050395968322651495,0.00023998080151613608,0.0009599232061436414,0.11518157020158831,-2.361222189335149,1.3821788425470996,-15.146376482834754,5.010398304215569,-0.11518157021086682,0.7486802063777885,-0.6334986361692495,1.1518157021161948,0.02376699999999987,-0.18771899999999997,-0.8998430000000001,0.022238999999999898,0.10259699999999994,-0.9186580000000001,0.0015279999999999738,0.2903159999999999,0.018815000000000026,0.31184999999999996,0.9914403109514931,single,-0.8998430000000001
113,0.470833,walk,-0.16874699951995192,0.08305328852615391,0.02712433989436357,-0.428318005323826,0.16288593829775716,-0.2256951578422437,-0.5828132501199887,0.34229476716272833,0.26164186269803164,0.0019203072491617847,0.0012001920307327777,-0.001680268843014896,0.22069783147319616,-2.2417955029232925,0.7504224053652706,-12.648982123668393,7.277898503616736,-0.7913927502588624,-0.7487492998327803,0.23048757302367762,-0.633747491396672,0.022042000000000117,-0.186639,-0.8988659999999999,0.022950000000000026,0.10225600000000001,-0.918778,0.0009079999999999089,0.288895,0.01991200000000004,0.30088,0.995300312000124,single,-0.8988659999999999
114,0.475,walk,-0.16510679145668966,0.057835373170131286,0.013678905687538772,-0.43028760310699576,0.4100713987646234,-0.28468217380939354,-0.6357091432685718,0.3484521238300977,0.2438204943604516,0.0026397888168906425,0.0014398848092033894,-0.0002399808015352859,0.8735800487790456,-6.0518155402022495,-3.2266460779517336,-12.693998835753133,1.4776473883775905,-4.27678625811858,0.17266176331386174,0.05752166509973915,0.34564147863681743,0.020081000000000016,-0.18542799999999993,-0.8979069999999999,0.02364900000000003,0.10202100000000003,-0.918836,0.0035680000000000156,0.28744899999999995,0.020929000000000086,0.29071,0.9949724801656115,single,-0.8979069999999999
115,0.479167,walk,-0.17950563954882776,0.081113510919167,0.02687784977201827,-0.4364131199008625,0.14243676879028253,-0.24751148406685414,-0.6947444204463278,0.3710103191744746,0.2399808015358755,0.005039596832265082,-0.001199904007660594,0.0031197504199661683,-3.4554471063446086,5.586306155276108,3.16749318082059,-14.167333136010457,5.413533799946411,-0.9214525616933233,0.5759078510617761,-0.6334986361564586,0.8062709914810244,0.017934000000000117,-0.18422000000000005,-0.8970189999999999,0.02441800000000005,0.10167799999999994,-0.918935,0.006483999999999934,0.285898,0.021916000000000047,0.28084000000000003,0.9899211237754049,single,-0.8970189999999999
116,0.483333,walk,-0.17186749879979318,0.07993278924625935,0.012722035525703486,-0.3098410088287593,0.11484448152719609,-0.21753737628988745,-0.7518002880461192,0.3756601056169077,0.24891982717234817,0.0040806529044488055,-0.0007201152184556565,-0.0021603456553053423,1.8334471313093055,-0.28341854846559167,-3.3979390893698453,-13.695599519873111,1.1161273265562006,2.145709466268042,-0.23018337201542863,0.11516773624698445,-1.2674258462005539,0.01551799999999992,-0.18298799999999993,-0.896035,0.025150999999999923,0.10134199999999993,-0.9189970000000001,0.009633000000000003,0.28432999999999986,0.022962000000000038,0.27037999999999995,0.9922115849200319,single,-0.896035
117,0.4875,walk,-0.18910487161027487,0.07391408687304457,0.023998080153585205,-0.40810490869371324,-0.005459532128971222,-0.30886039422645534,-0.7948164146868252,0.3969282457403004,0.18838492920566485,0.0045596352291795905,0.0004799616030855586,0.0,-4.136638543432153,-1.444373019729977,2.706034227953392,-10.323044550205477,5.103945313989152,-14.527213334937285,0.11494656221041222,0.2879953975380902,0.5184414819547287,0.01299399999999995,-0.18164200000000008,-0.89535,0.025957999999999926,0.10103600000000001,-0.919097,0.012963999999999976,0.2826780000000001,0.023747000000000074,0.26252999999999993,0.9923586220404207,single,-0.89535
118,0.491667,walk,-0.1972642188625136,0.067194624430059,0.023518118550499335,-0.3500389588293067,0.12179111788503122,-0.2912214454741032,-0.8531317494600307,0.4022078233741296,0.13006959443244295,0.0021598272138583416,-0.0011999040076872372,-0.002399808015358655,-1.9580866936017949,-1.6125419829578889,-0.11518157021499081,-13.994560780706756,1.2669972723372092,-13.994560780710692,-0.5759078510490114,-0.40313549574580826,-0.5759078510579883,0.010261000000000076,-0.18024600000000013,-0.894906,0.026789000000000174,0.10075099999999992,-0.9192049999999999,0.016528000000000098,0.28099700000000005,0.02429899999999996,0.25701000000000007,0.9942593792118586,single,-0.894906
119,0.495833,walk,-0.19563130100816362,0.05208833413344012,0.007921267402799024,-0.3807446848135951,0.17593346349303987,-0.39438511714124996,-0.9032645223235617,0.41598655784925187,0.14306289006241138,0.0024003840614122566,0.0038406144983235695,-0.0007201152184348364,0.3919629991238574,-3.626089845563818,-3.7438432903745316,-12.033790893790442,3.3074254621032835,3.1188899735881943,0.057742882274103395,1.2099180283271251,0.40319078178680207,0.007313000000000125,-0.17873000000000006,-0.894343,0.027614000000000027,0.10055000000000003,-0.919241,0.020300999999999902,0.2792800000000001,0.024897999999999976,0.25101999999999997,0.9923567878162609,single,-0.894343
120,0.5,walk,-0.19102471802256382,0.06767458603314545,0.02039836813055009,-0.39950914222455725,0.10954536399578578,-0.337760981793242,-0.9493640508759522,0.4118070554355797,0.10655147588193004,0.001919846412288948,0.0023998080153745066,-0.0007199424046075229,1.105491477225779,3.7404012238313946,2.994264633489594,-11.063001812428794,-1.0030003392541822,-8.762038440240353,-0.11531981020477833,-0.34576589463620616,4.147200079517178e-05,0.004153000000000073,-0.17729600000000012,-0.893984,0.028418000000000054,0.10027799999999998,-0.9193290000000001,0.02426499999999998,0.2775740000000001,0.025345000000000062,0.24655,0.9947392422854089,single,-0.893984
121,0.504167,walk,-0.20926325893927938,0.07415406767455972,0.028557715382764418,-0.2661756085068345,-0.04210562205410167,-0.30221274256587755,-0.9688024958003449,0.42500599952002727,0.0741540676745847,0.00311975041997616,0.000959923206117818,-0.0009599232061436286,-4.376899668038258,1.5549511978435842,1.9580866935959358,-4.6648535935667335,3.1674931808129227,-7.774755989283679,0.28795392553088617,-0.34554471064475106,-0.05759078510585646,0.0009879999999999889,-0.17583400000000005,-0.893794,0.02930300000000008,0.09997299999999998,-0.9194519999999999,0.02831500000000009,0.275807,0.02565799999999996,0.24342000000000003,0.9943294748905027,single,-0.893794
122,0.508333,walk,-0.21003360537685034,0.06721075372060917,0.011521843494970707,-0.20721352853781394,-0.05014988996904448,-0.3320825434935196,-1.030964954392687,0.42102736437830823,0.056409025444070796,0.0012001920307327777,0.0019203072491617847,0.0007201152184348364,-0.18491273105399814,-1.66666201487051,-4.0892635352361255,-14.921377482559315,-0.9550252380506554,-4.259491653987972,-0.46076773625621237,0.23052905497934853,0.403273745698143,-0.0024319999999999897,-0.17436000000000007,-0.893607,0.03018300000000007,0.09970099999999993,-0.919497,0.03261500000000006,0.274061,0.02588999999999997,0.24110000000000004,0.9960395683562833,single,-0.893607
123,0.5125,walk,-0.21550275977918418,0.058075353971701486,0.011039116870648276,-0.3554067235915691,0.19711663422237832,-0.44027465057211085,-1.047276217902596,0.41228701703867077,0.03527717782577492,0.0023998080153745387,0.002159827213831756,0.0019198464122873083,-1.31249205719557,-2.1923205540935577,-0.11584512222760758,-3.914390091170933,-2.0975155602682105,-5.071237729372757,0.28788480552958573,0.0574801931053458,0.2879124535283164,-0.005898000000000181,-0.17288400000000004,-0.893506,0.03109099999999998,0.09946799999999989,-0.919535,0.03698900000000016,0.2723519999999999,0.02602899999999997,0.23971000000000003,0.9937395105021349,single,-0.893506
124,0.516667,walk,-0.21094312455005218,0.06623470122388789,0.013918886489081366,-0.24259711629357564,0.012697171644256025,-0.3456718888550103,-1.0943124550035668,0.41876649868007493,0.005279577633789541,0.000959923206117818,0.0016798656107461464,-0.0009599232061436286,1.0942249169983111,1.9580866935892343,0.6910894212702348,-11.287793880722427,1.5549511978411594,-7.198848138225378,-0.3455447106447587,-0.11518157021492827,-0.6910894212697181,-0.009579000000000004,-0.1714150000000001,-0.8935420000000001,0.03197399999999995,0.09919899999999993,-0.919597,0.04155299999999995,0.270614,0.02605499999999994,0.23945,0.9964002879769873,single,-0.8935420000000001
125,0.520833,walk,-0.1781084973595823,0.060009601536212494,-0.009121459433505152,-0.21994216098177116,0.09040212088230239,-0.38349178635412157,-1.1545847335573638,0.4104656745079451,-0.00840134421507448,0.0016802688430365487,0.0009601536245808924,-0.0031204992798845687,7.881571577165109,-1.494263007123233,-5.530567912286726,-14.46766167877988,-1.9925166039677975,-3.2839466751953945,0.17291061855946477,-0.17275851804254763,-0.5186212370957606,-0.013646999999999965,-0.16995499999999986,-0.8935390000000001,0.03272300000000006,0.09895300000000007,-0.9195720000000001,0.04637000000000002,0.2689079999999999,0.026032999999999973,0.23967,0.9938801974152585,single,-0.8935390000000001
126,0.525,walk,-0.254139668826473,0.0568754499640127,0.03839692824572516,-0.6990442278451706,-0.017700587397158046,-0.5044486549029461,-1.181665466762686,0.3911687065034816,-0.014158867290617482,0.0014398848092033701,0.00311975041997616,0.0007199424046075133,-18.246021470335997,-0.7521362064314309,11.403500762954152,-6.498856060792422,-4.63090184892328,-1.3816950025301074,-0.05768755311571317,0.518261769953264,0.9216322736961969,-0.017512000000000194,-0.16856199999999988,-0.8937579999999999,0.03378799999999993,0.09872900000000007,-0.919729,0.05130000000000012,0.26729099999999995,0.025971000000000077,0.24029000000000006,0.9941489725468589,single,-0.8937579999999999
127,0.529167,walk,-0.22342212622990354,0.06311495080396502,0.023278137748983203,-0.44633653114015903,-0.07861510692654988,-0.38926175149900366,-1.2467002639788334,0.39572834173266114,-0.05423566114710711,0.00023998080151613289,0.0023998080153478313,-0.002879769618430886,7.371620493537128,1.4973604127555262,-3.628219461661109,-15.607102763654154,1.0942249170097145,-9.617661112668424,-0.2879539255308923,-0.17277235532237176,-0.8638617765870822,-0.021776000000000018,-0.167176,-0.894081,0.03471999999999986,0.0984759999999999,-0.919838,0.05649599999999988,0.2656519999999999,0.02575700000000003,0.24242999999999998,0.9937395105021737,single,-0.894081
128,0.533333,walk,-0.2349975996159598,0.06409025444071631,0.015362457993268037,-0.30685692464377484,-0.04689266929132665,-0.4082005159577285,-1.2786845895343781,0.3879020643302644,-0.05520883341334781,0.0009601536246075675,0.0012001920307328098,-0.0007201152184348556,-2.7785581819626914,0.23411033047319074,-1.9000671521160277,-7.677466527975417,-1.8786071537198565,-0.23359871969292598,0.1728691366038054,-0.2879539089330419,0.5183999999990605,-0.026124000000000036,-0.16582700000000017,-0.8943749999999999,0.03570300000000004,0.09821399999999991,-0.919905,0.061827000000000076,0.2640410000000001,0.025530000000000053,0.24470000000000003,0.9971711202544593,single,-0.8943749999999999
129,0.5375,walk,-0.2102231821454505,0.04895608351328759,-0.018958483321319806,-0.10243131388028436,0.06038946679532261,-0.38319407659053717,-1.3230141588672515,0.384449244060497,-0.06527477801775843,-0.00023998080156941934,0.0016798656107461464,-0.00215982721382254,5.945384562157218,-3.6319104697452853,-8.236367006140528,-10.638245580243105,-0.8286105758980974,-2.415633454382178,-0.28800922154475106,0.11511245020718332,-0.3455032386339509,-0.030760999999999816,-0.16442899999999994,-0.894568,0.036578,0.09801700000000002,-0.919835,0.06733899999999982,0.26244599999999996,0.02526699999999993,0.24733000000000005,0.9954221569705393,single,-0.894568
130,0.541667,walk,-0.23662107031435659,0.067194624430059,0.010319174466046297,-0.16853597437093723,-0.07863296352132654,-0.3493784880520645,-1.3268538516918826,0.36573074154069335,-0.0849532037436999,0.0011999040076872372,0.0014398848092300135,-0.00215982721382254,-6.334986361628483,4.37689966805166,7.0260757829051785,-0.9214525617065317,-4.492081238253786,-4.722444378675624,0.3455447106447434,-0.057590785101063365,0.0,-0.035304,-0.1631849999999999,-0.894965,0.037568999999999964,0.09774300000000002,-0.919887,0.07287299999999997,0.26092799999999994,0.024922,0.25078000000000006,0.9952338311783631,single,-0.894965
131,0.545833,walk,-0.25828132501202017,0.06313010081610707,0.013202112337953957,-0.17874971137023474,-0.0738232456569097,-0.3761426255485199,-1.355016802688405,0.35309649543927,-0.09025444071051227,0.0007201152184290069,0.0016802688430098993,0.0002400384061443903,-5.1992930143215474,-0.9756417700316679,0.6920158117877238,-6.760189869544508,-3.0327042970291216,-1.2725004721105049,-0.11516773625977676,0.05770140033122553,0.5760599183790035,-0.039872999999999825,-0.16197699999999982,-0.895396,0.038648000000000016,0.0974870000000001,-0.9199409999999999,0.07852099999999984,0.2594639999999999,0.024544999999999928,0.25454999999999994,0.9969270500288687,single,-0.895396
132,0.55,walk,-0.23374130069589655,0.04943604511642643,-0.0071994240460701376,-0.22067727724587877,0.17170060545337504,-0.4276322656809612,-1.417566594672441,0.32325413966882094,-0.10751139908807308,-0.00047996160303226577,0.0,-0.0026397888168947707,5.889134705093217,-3.2863104630862807,-4.895977054001426,-15.010749216231197,-7.161592457511124,-4.141338703518284,-0.28799539751890174,-0.40323226374127347,-0.6911032452697718,-0.044806000000000124,-0.16083599999999998,-0.895814,0.03961999999999999,0.09728099999999995,-0.919922,0.08442600000000011,0.25811699999999993,0.02410800000000002,0.25892000000000004,0.995528221787269,single,-0.895814
133,0.554167,walk,-0.2383009359251357,0.06455483561311683,-0.004319654427636869,-0.14044819267962466,0.015617313461661586,-0.3381019091872451,-1.444444444444471,0.3460523158147278,-0.11543076553875964,-0.0011999040076872693,0.0011999040076872693,-0.003359731221502373,-1.0942249170240577,3.6282194616488326,0.691089421270296,-6.4501679318528025,5.4711245850509425,-1.9004959084921298,-0.17277235532877785,0.28795392553090765,-0.1727723553174025,-0.0498320000000001,-0.1596629999999999,-0.896277,0.04060799999999998,0.09701700000000013,-0.919918,0.09044000000000008,0.25668,0.023641000000000023,0.26359,0.9937267470036879,single,-0.896277
134,0.558333,walk,-0.2481997119539075,0.06096975516082004,-0.004800768122904461,-0.19996429799742269,-0.0516344301085555,-0.29706109307025674,-1.4543927028324608,0.2940470475276118,-0.1327412385981751,0.0012001920307327777,-0.0002400384061518855,-0.0012001920307244498,-2.3760864207325447,-0.8605569976708558,-0.115485764586556,-2.387964087371515,-12.483261710781553,-4.1551783627977565,0.576115227657236,-0.34564148195851024,0.5183723453619591,-0.054857000000000156,-0.15869199999999983,-0.89681,0.04164699999999999,0.09676200000000013,-0.919903,0.09650400000000015,0.25545399999999996,0.02309300000000003,0.26907000000000003,0.9971429715040132,single,-0.89681
135,0.5625,walk,-0.2502999760019485,0.048476121910255326,-0.010079193664503522,-0.1714927295042529,0.05582487667046277,-0.3714748353135261,-1.487161027117821,0.2927765778737676,-0.13774898008159198,-0.00023998080156941934,-0.0028797696184333834,0.002399808015358655,-0.5040230496858561,-2.9982321215657826,-1.2667207923203792,-7.8637687269882415,-0.3048883258565365,-1.2017618150748341,-0.345613830646073,-0.6334848121625817,0.8639308965882115,-0.06001100000000004,-0.15767399999999987,-0.897342,0.04268899999999998,0.09654800000000008,-0.919851,0.10270000000000001,0.25422199999999995,0.022509,0.27491,0.9937395105021534,single,-0.897342
136,0.566667,walk,-0.2618190544756287,0.05279577633791872,-0.005279577633781215,-0.19513522903205235,-0.08931316711977744,-0.2973607894096998,-1.5298776097912097,0.27933765298774516,-0.14422846172306208,-0.00023998080151613289,0.0026397888168906074,-0.0040796736261097975,-2.764357685068427,1.0366341319086547,1.1518157021171755,-10.251159748833285,-3.225083965928087,-1.5549511978569857,1.2787724907242645e-11,1.3245880574331532,-1.5549511978565882,-0.0652950000000001,-0.15673000000000004,-0.8979210000000001,0.04377900000000001,0.09633899999999995,-0.919846,0.10907400000000012,0.253069,0.021924999999999972,0.28075000000000006,0.9918913947153429,single,-0.8979210000000001
137,0.570833,walk,-0.24459913586176246,0.054248679788780445,-0.018722995679314076,-0.25016239351035696,0.13534059531054174,-0.32872450290342053,-1.5453672587613871,0.2578012481997164,-0.14042246759481392,-0.000960153624607542,-0.00048007681227712134,-0.0014402304368696728,4.133441818018777,0.34875262862739326,-3.2269366407904108,-3.7181106505466754,-5.169564279411605,0.9135847643418546,-0.17286913660379466,-0.7488875730119362,0.6335677362554303,-0.07071399999999994,-0.15588200000000008,-0.898428,0.044794,0.09611099999999995,-0.919774,0.11550799999999994,0.251993,0.021345999999999976,0.28654,0.9970061950817753,single,-0.898428
138,0.575,walk,-0.2517398608111052,0.051835853131749,-0.016078713702913493,-0.16550486075887416,0.028988179318648683,-0.305013524935295,-1.5622750179985936,0.2397408207343391,-0.15310775137989244,-0.0007199424046017042,0.0,-0.004079673626109906,-1.7136368968905433,-0.5790320751215476,0.6345769081834974,-4.05753761392051,-4.334155859221893,-3.0442245704532667,0.057646081114912956,0.11520921820905458,-0.633415692162295,-0.0761750000000001,-0.1550990000000001,-0.898999,0.04583999999999988,0.09589499999999995,-0.919724,0.12201499999999998,0.25099400000000005,0.020724999999999993,0.29275,0.993095481760808,single,-0.898999
139,0.579167,walk,-0.2747780177585656,0.059755219582419444,0.006479481641468453,-0.27628919814436925,-0.02372909358207536,-0.22847181275237904,-1.5982721382289027,0.24070074394050384,-0.13846892248620032,-0.0014398848092033701,-0.0002399808015427761,-0.001199904007679744,-5.528715370160833,1.9004959084882127,5.41353379994763,-8.63861776585285,0.2303631404282981,3.513037891454764,-0.1727723553159732,-0.05759078510745723,0.6910894212695321,-0.08169000000000004,-0.15434499999999995,-0.8996029999999999,0.04697899999999988,0.09564499999999998,-0.919756,0.12866899999999992,0.24998999999999993,0.020153000000000088,0.29847,0.9968506487985047,single,-0.8996029999999999
140,0.583333,walk,-0.2717234757561527,0.051848295727314885,-0.014882381180990506,-0.1301529202253301,0.08687131982362437,-0.25705431901698556,-1.6099375900144055,0.21939510321648073,-0.13490158425348045,-0.0007201152184290069,-0.004080652904475455,-0.00048007681228961336,0.7332073937620966,-1.8979653996890433,-5.127667504190817,-2.800156453553244,-5.114172041292148,0.8562981835621392,0.17277234536110483,-0.9219088101134605,0.1727861726812602,-0.08726499999999993,-0.1536470000000001,-0.900103,0.04810800000000004,0.09541199999999994,-0.919696,0.13537299999999997,0.24905900000000003,0.01959299999999997,0.30407,0.9930476287417899,single,-0.900103
141,0.5875,walk,-0.28029757619391626,0.048476121910255326,-0.01871850251977703,-0.06602461891920022,-0.017664249983315946,-0.17275352628548976,-1.6270698344132366,0.17854571634270994,-0.1295896328293724,0.00023998080151613289,-0.0035997120230350688,-0.002399808015359488,-2.0576194955036025,-0.8092569755362449,-0.9205954736708648,-4.111409742939997,-9.803068604216579,1.2747663604770874,0.23040461241783836,0.1154165782194343,-0.46069863284613866,-0.09287699999999988,-0.15310500000000005,-0.9005650000000001,0.049277000000000015,0.09519499999999992,-0.9196280000000001,0.1421539999999999,0.24829999999999997,0.019063000000000052,0.30937,0.9927783896947228,single,-0.9005650000000001
142,0.591667,walk,-0.2841372690184408,0.04439644828410806,-0.013678905687565234,-0.2098656989658444,-0.0015987518577676094,-0.18013384073655062,-1.6395488360930879,0.17614590832733545,-0.13750899928005753,-0.0014398848092033701,-0.0009599232061444612,-0.0035997120230375663,-0.9214525616809409,-0.9790433468075915,1.2094064872118446,-2.9947208254982436,-0.5759078510617865,-1.9004959084917394,-0.403135495733019,0.633498636162848,-0.28795392552869437,-0.09852499999999997,-0.15255599999999991,-0.901081,0.05045499999999992,0.09500600000000003,-0.919586,0.1489799999999999,0.24756199999999995,0.018504999999999994,0.31495000000000006,0.9933432057527101,single,-0.901081
143,0.595833,walk,-0.2767642822851631,0.04488718194915125,-0.033125300048001696,-0.05841701725493743,0.056151792594750026,-0.23704399241936444,-1.6675468074892503,0.18963034085455807,-0.1317810849735994,-0.0009601536245542683,-0.0014402304368580521,-0.003600576092175111,1.769799983984128,0.1177949267986558,-4.667881507546079,-6.7205884292278375,3.2367816916041687,1.3749194206572937,0.11515390894121802,-0.11529218212040408,-0.00020740977857533122,-0.10431900000000005,-0.151953,-0.901492,0.05160399999999998,0.09481299999999993,-0.919463,0.15592300000000003,0.24676599999999993,0.01797100000000007,0.3202900000000001,0.9933416078664381,single,-0.901492
144,0.6,walk,-0.2730981521478461,0.047516198704084224,-0.030717542596596117,-0.11315346525786123,0.0012170743445271413,-0.13158836430153584,-1.669786417086625,0.15718742500596236,-0.11567074634029101,0.00047996160303226577,-0.0028797696184333834,-0.001679865610751142,0.8798008488881576,0.6309135481000612,0.5778155630922873,-0.537463306305415,-7.785676949506951,3.8661719782357227,0.34560000662023593,-0.34546176663674594,0.46093364085048105,-0.11013899999999999,-0.15149600000000008,-0.9018459999999999,0.0527439999999999,0.09460299999999999,-0.919342,0.1628829999999999,0.24609900000000007,0.017496000000000067,0.32504,0.9943861815664328,single,-0.9018459999999999
145,0.604167,walk,-0.28389728821692467,0.04703623710099867,-0.02783777297816273,-0.1709769569623608,0.12150049526815562,-0.1432175643627303,-1.6844252459803348,0.1497480201583761,-0.11399088072954154,-0.0007199424046016851,-0.0035997120230350688,-0.0031197504199661683,-2.5915853297524554,-0.11518157021491505,0.6910894212703055,-3.5130378914590135,-1.7853143382736274,0.4031354957402099,-0.28795392551810456,-0.1727723553159779,-0.3455447106347529,-0.11597500000000016,-0.15106799999999998,-0.9022049999999999,0.05392399999999986,0.09439200000000014,-0.919239,0.16989900000000002,0.24546000000000012,0.017034000000000105,0.32966000000000006,0.991970698384181,single,-0.9022049999999999
146,0.608333,walk,-0.3043686989918497,0.0350456072972159,-0.039846375420067054,-0.10552261190391173,0.041525164132134536,-0.09107621308377713,-1.6910705712913976,0.1509841574651921,-0.10369659145463143,-0.0014402304368580138,-0.0031204992798945625,-0.0048007681228994644,-4.913924813952238,-2.878211666774547,-2.8825257901834647,-1.59513329598242,0.2967204289044615,2.471024789944815,-0.17289679122811527,0.11502946306781228,-0.40350881011360895,-0.12175200000000008,-0.1505850000000002,-0.902471,0.05518599999999996,0.0942329999999999,-0.9190929999999999,0.17693800000000004,0.2448180000000001,0.016621999999999915,0.33377999999999997,0.9901597264552302,single,-0.902471
147,0.6125,walk,-0.29445644348454036,0.0395968322534124,-0.03167746580274058,-0.06744043696501603,-0.03273936851910813,-0.14911130435244555,-1.6921046316294373,0.12119030477566496,-0.09791216702663846,-0.0004799616030855522,-0.0019198464122889224,-0.005039596832253425,2.3787510216724903,1.0922066129581158,1.9603814776401283,-0.2481546287592146,-7.149952649274514,1.3881508106534501,0.23044608441863554,0.2881336375343487,-0.05731430510054215,-0.1275759999999999,-0.15024499999999996,-0.902747,0.05641099999999999,0.09405999999999992,-0.918982,0.1839869999999999,0.24430499999999988,0.016235,0.33765000000000006,0.9909763105570095,single,-0.902747
148,0.616667,walk,-0.293256539476861,0.030237580993484725,-0.047036237101026564,-0.16465291057095485,0.2875942688740505,-0.16693301403212563,-1.7072234221262779,0.11543076553874798,-0.08351331893448542,0.000479961603085565,-0.00287976961843346,-0.0028797696184309626,0.28795392552901594,-2.2460406191331543,-3.6858102467689653,-3.6282194616848824,-1.3821788425526973,3.455447106348288,0.23036314042983813,-0.23036314042345957,0.5183170659521248,-0.13346799999999992,-0.14988999999999986,-0.902899,0.0576350000000001,0.09392200000000006,-0.918798,0.19110300000000002,0.24381199999999992,0.015898999999999996,0.34101,0.9931653437762372,single,-0.902899
149,0.620833,walk,-0.3014882381180804,0.041046567450826486,-0.030004800768106247,-0.06001722198942613,-0.04620447432435767,-0.07535535256127823,-1.7186749879980916,0.1274603936629469,-0.08089294287086023,-0.0016802688430365487,-0.0036005760921716838,-0.003360537686029792,-1.9759238217041322,2.5945718812630227,4.088198831713948,-2.7488156197344504,2.8875727614495696,0.6289908938130567,-0.5185382731930178,-0.17302123709510875,-0.11540280067182643,-0.13937200000000005,-0.14953000000000016,-0.903111,0.058883999999999936,0.09373599999999993,-0.918687,0.198256,0.2432660000000001,0.015576000000000034,0.34424,0.99132681893555,single,-0.903111
150,0.625,walk,-0.3316534677225783,0.03695704343652179,-0.05399568034557932,-0.24293686469401723,0.08305324739310663,-0.17316555643478257,-1.7079433645307809,0.11615070794339988,-0.07919366450683812,0.0004799616030855522,-0.0033597312214922927,-0.001679865610751142,-7.239075979001123,-0.9814072508530507,-5.75735051055265,2.5753836014664344,-2.714107444095736,0.40779418383059507,0.5184138339625833,0.057798145111444495,0.4033290317443333,-0.14510699999999987,-0.1492,-0.903216,0.06026799999999999,0.09356799999999998,-0.918469,0.20537499999999986,0.24276799999999998,0.015252999999999961,0.34746999999999995,0.993688611375878,single,-0.903216
151,0.629167,walk,-0.30261579073672834,0.031437485001171155,-0.05015598752100147,-0.08283595375435494,-0.0039809910610986215,-0.0668186374144994,-1.7204223662107387,0.0964722822174251,-0.07007439404847574,-0.0016798656107195032,-0.005039596832265082,-0.005519558435324824,6.968484997804115,-1.3245880574395479,0.9214525616937412,-2.994720825523821,-4.722444378683616,2.188449834020235,-0.5183170659479335,-0.40313549574580665,-0.9214525616927413,-0.15101500000000012,-0.14892899999999987,-0.903299,0.06152200000000008,0.09341600000000005,-0.918283,0.2125370000000002,0.24234499999999992,0.014983999999999997,0.35016,0.9872323096556168,single,-0.903299
152,0.633333,walk,-0.30796927508399474,0.029044647143552007,-0.04368698991839063,-0.0015472300526932295,-0.01606325909359363,-0.04614707159498804,-1.7803648583773408,0.13946231397022138,-0.1269803168506964,0.0,-0.0036005760921716838,-0.0026404224675949557,-1.2850418500399419,-0.574372985506276,1.5528078738864224,-14.388500280029293,10.319258702063431,-13.659607009654497,0.403232263734878,0.3454202448615931,0.6911032087685708,-0.1571490000000002,-0.14846899999999996,-0.903646,0.062805,0.09328000000000003,-0.918112,0.2199540000000002,0.241749,0.01446600000000009,0.35534,0.992558379245588,single,-0.903646
153,0.6375,walk,-0.307895368370571,0.0175185985121169,-0.05015598752100281,-0.11045887932385642,0.34243717039913524,-0.15783387931087153,-1.7293016558675212,0.11543076553874798,-0.10607151427885922,-0.00095992320617113,-0.0023998080153478955,-0.004559635229182149,0.017736192326307382,-2.766030389113349,-1.552435229808568,12.254188267295568,-5.767110254733347,5.017711200344994,-0.23036314042984118,0.28816128553487186,-0.4605742168435877,-0.16307199999999988,-0.148061,-0.903879,0.06408400000000003,0.09319700000000009,-0.917922,0.2271559999999999,0.24125800000000008,0.014043000000000028,0.35956999999999995,0.9912645669675051,single,-0.903879
154,0.641667,walk,-0.3546916246699921,0.044636429085677484,-0.033117350611943944,-0.09849317298478125,-0.20224257039236548,-0.08379950952569096,-1.7199424046076532,0.09863210943123016,-0.07847372210223144,-0.0004799616030855522,-0.0023998080153744745,-0.00431965442764508,-11.230203095613325,6.507758716957134,4.088945742514696,2.246040619118754,-4.031354957407654,6.622940287167642,0.11518157021492059,-6.378449584364637e-12,0.05759078510608769,-0.16876100000000016,-0.14783600000000008,-0.904068,0.06555999999999984,0.093001,-0.917802,0.234321,0.24083700000000008,0.013734000000000024,0.36266,0.9917253976219456,single,-0.904068
155,0.645833,walk,-0.30748919827174426,0.024243879020674194,-0.07489198271722965,0.010638733548044342,0.08275680138352036,-0.1226161233779414,-1.7237157945270947,0.09961593855018097,-0.0420067210753724,0.0007201152184290069,-0.005280844935181583,-0.0052808449351899114,11.330395198811283,-4.894995214835159,-10.027516107845816,-0.9057585020262662,0.23615677363197607,8.753480803374703,0.288064527487892,-0.6915595102753496,-0.23072263743274862,-0.17466099999999996,-0.14752200000000015,-0.903931,0.0668439999999999,0.0928779999999999,-0.917512,0.24150499999999986,0.24040000000000006,0.013580999999999954,0.36419,0.987495199545467,single,-0.903931
156,0.65,walk,-0.3486921046316092,0.031677465802687294,-0.04919606431485701,-0.05857087401236299,-0.20079750634066074,-0.049207939906941174,-1.7069834413247162,0.10175185985120631,-0.026637868970482155,-0.0016798656107195032,-0.0026397888168906074,-0.004559635229182028,-9.887906493848005,1.7839181142339915,6.166527094401832,4.015443533088145,0.5125801058376113,3.688229446817885,-0.5759493230497941,0.6338027641686959,0.1730764833232249,-0.18032100000000018,-0.14722999999999997,-0.903837,0.06828999999999996,0.09273500000000012,-0.917326,0.24861100000000014,0.2399650000000001,0.013488999999999973,0.36511,0.9907833624335818,single,-0.903837
157,0.654167,walk,-0.3170146388289219,0.01439884809219356,-0.06095512359010668,-0.006422292118193639,0.22503745054686525,-0.15662278102152052,-1.6985841132709056,0.08207343412528482,0.0055195584353256565,-0.002879769618460027,-0.004079673626120621,-0.000959923206142796,7.601983633954183,-4.146536527596257,-2.8219484701822837,2.015677478716233,-4.7224443786708274,7.7171652041774825,-0.28795392554368004,-0.34554471063834963,0.863861776587282,-0.18607799999999997,-0.14694800000000008,-0.90356,0.06959899999999997,0.09265799999999991,-0.917076,0.25567699999999993,0.23960599999999999,0.013515999999999972,0.36484,0.9915248299733934,single,-0.90356
158,0.658333,walk,-0.3636581853096429,0.026884301488212404,-0.043927028324543684,-0.14361647596427948,-0.0051685337603008105,-0.20420839583523698,-1.671387421987574,0.0823331733077271,0.008881421027363497,-0.00024003840612524228,-0.0028804608737427535,-0.0048007681229004255,-11.196242554182,2.9969883331779084,4.087396847230782,6.528250428068265,0.06234737936684714,0.806976138271226,0.6336368728600225,0.28785711770952926,-0.9219502920685859,-0.19152600000000009,-0.146717,-0.90334,0.07111299999999998,0.092534,-0.916913,0.26263900000000007,0.239251,0.013572999999999946,0.36427000000000004,0.9906604116419175,single,-0.90334
159,0.6625,walk,-0.33693304535635954,0.023038156947467067,-0.057115430765528837,0.0836687021371241,-0.015667190299826852,-0.03502298419215121,-1.6820254379649069,0.08087353011759758,-0.00911927045836239,-0.00023998080151613289,-0.003839692824577845,-0.00479961603071731,6.413520507147383,-0.9230008497108969,-3.1649633887653112,-2.5529196009918063,-0.3502863427236642,-4.319820370944505,1.3824000266232257e-05,-0.23019725242022654,0.00027648000554720973,-0.19713099999999995,-0.14647600000000005,-0.90314,0.07251600000000002,0.0924219999999999,-0.916695,0.26964699999999997,0.23889799999999994,0.013554999999999984,0.36445,0.9897480156643634,single,-0.90314
160,0.666667,walk,-0.3513318934485531,0.019438444924405357,-0.06599472042237176,0.022400607742819566,-0.10375295404765751,-0.1279037356502494,-1.6810655147588425,0.11087113030956537,0.0201583873290137,-0.0016798656107727896,-0.0016798656107461464,-0.005759539236860939,-3.455447106357917,-0.8638617765926765,-2.1308590489183707,0.23036314040422598,7.198848138221156,7.026075782907577,-0.3455447106447434,0.5183170659543274,-0.23036314042323527,-0.20267199999999996,-0.14609500000000009,-0.9027810000000001,0.07397300000000007,0.09233399999999992,-0.916444,0.27664500000000003,0.238429,0.01366299999999998,0.36336999999999997,0.9896162267132579,single,-0.9027810000000001
161,0.670833,walk,-0.3518963034085373,0.021603456553030104,-0.061209793566971926,-0.06570312221627907,0.06793132834935751,-0.0930864704263484,-1.6797887662026054,0.10513682189148779,0.022323571771482427,-0.0012001920307327777,-0.0026404224675907915,-0.004320691310609852,-0.1354800672069589,0.5196859406204383,1.1485662158905006,0.30646868848704983,-1.3764542530191013,0.5197274225801065,0.11514008162266237,-0.23057053692862325,0.34537876290232505,-0.20820400000000006,-0.14574700000000007,-0.902433,0.075434,0.09223300000000001,-0.916207,0.28363800000000006,0.23798000000000008,0.013773999999999953,0.36226,0.9913268189355584,single,-0.902433
162,0.675,walk,-0.3522918166546709,0.021598272138210414,-0.061195104391649456,0.002905963550486172,-0.10131883315020053,-0.14323945770229962,-1.6721862251019461,0.11327093832493985,0.01295896328293857,-0.00023998080151613289,-0.0035997120230350688,-0.00479961603071731,-0.09491558582520386,-0.0012441600239238785,0.003525120067787375,1.824463907045649,1.9520317814859613,-2.247326251150416,0.23043226043115853,-0.23021107642051114,-0.1149327382067326,-0.2137039999999999,-0.14536499999999997,-0.902124,0.07690100000000011,0.0921280000000001,-0.915972,0.290605,0.23749300000000007,0.013847999999999971,0.36151999999999995,0.9899928037731454,single,-0.902124
163,0.679167,walk,-0.34917206623470404,0.01991840652749144,-0.05447564194863968,0.11834159101412063,-0.055449141757437446,-0.005698613087650485,-1.675065994720451,0.12646988240944954,-0.0011999040076806084,0.000479961603085565,-0.00287976961843346,-0.0057595392368610925,0.7486802063755533,-0.4031354957329029,1.6125419829637402,-0.6910894212874572,3.1674931808279174,-3.3978563212429678,0.17277235531598548,0.17277235531596408,-0.23036314042327827,-0.2192289999999999,-0.14492099999999986,-0.901902,0.07835800000000015,0.09203300000000003,-0.915769,0.29758700000000005,0.2369539999999999,0.013867000000000074,0.36133000000000004,0.989237961725399,single,-0.901902
164,0.683333,walk,-0.3494959193470717,0.020883341334601097,-0.06289006240998182,0.09203270930322202,-0.14868279326760142,-0.08433309595800458,-1.6824291886701963,0.11449831973111818,-0.017042726836292516,-0.000480076812303771,-0.0033605376860197985,-0.0026404224675949557,-0.07773718491782419,0.23162141313241882,-2.019784076174301,-1.767449339833264,-2.8736348243714223,-3.802885940617354,-0.23044609106801134,-0.11540280066882813,0.7487078178747323,-0.22478200000000004,-0.14453099999999997,-0.901711,0.079812,0.09193200000000012,-0.915518,0.30459400000000003,0.2364630000000001,0.013807000000000014,0.36193,0.9928322640153852,single,-0.901711
165,0.6875,walk,-0.3170146388289219,0.01391888648910801,-0.08423326133908988,0.02600787277628821,-0.04104590384961857,-0.25247935416013834,-1.6563474922006025,0.1387089032877281,-0.009599232061436286,-0.0033597312214922927,0.00023998080151613289,-0.007199424046075965,7.7948837336572,-1.6713354560818416,-5.121957986346988,6.259106424188528,5.810075247566534,1.7862958422980977,-0.6910617732633789,0.8640553125836102,-1.0940728530071935,-0.23036299999999987,-0.1440110000000001,-0.9014000000000001,0.08111900000000016,0.09187499999999993,-0.915197,0.31148200000000004,0.23588600000000004,0.013796999999999948,0.3620300000000001,0.9867526636575725,single,-0.9014000000000001
166,0.691667,walk,-0.35853131749456996,0.021838252939779833,-0.06863450923926237,0.07550015943107619,-0.19030563817642732,-0.10667711940805966,-1.6529877609791104,0.15742740580753178,-0.003599712023036734,-0.00311975041997616,0.005759539236866767,-0.01367890568754525,-9.963205823289597,1.900495908488544,3.743401031876025,0.8062709914787879,4.492081238253786,1.43976962764567,0.057590785101063365,1.3245880574395468,-1.5549511978567878,-0.235757,-0.14344600000000018,-0.9011290000000001,0.0826,0.09180799999999989,-0.914968,0.318357,0.23525400000000007,0.013838999999999935,0.36161,0.9747227816825381,single,-0.9011290000000001
167,0.695833,walk,-0.37397983677387114,0.03888622179548616,-0.07297167546809452,0.26334065717038685,-0.15936126330614503,0.04243078633615975,-1.6502640422467498,0.160585693711001,-0.00912145943351015,-0.0033605376860197985,-0.0012001920307061283,-0.015122419587134063,-3.7082379451034986,4.092167272133057,-1.0410864687547163,0.6537971033030593,0.7581103944957329,-1.3254314475452262,-0.05779819156112301,-1.6706028006656,-0.34649877570542786,-0.241074,-0.14293900000000015,-0.900863,0.084144,0.09164099999999997,-0.914727,0.325218,0.23458000000000012,0.013863999999999987,0.36136,0.9741037728713736,single,-0.900863
168,0.7,walk,-0.37365010799137516,0.029037676985797456,-0.07703383729299515,0.16134863086589776,-0.07915614600465404,-0.17217437361965116,-1.6306695464363417,0.16558675305977744,0.008879289656828177,-0.0059995200384363465,-0.005279577633807999,-0.015598752099832091,0.07912857751283713,-2.363461677391143,-0.9748408507081128,4.702302810273229,1.2001582310478813,4.319834194945685,-0.6333051001719698,-0.978974226806323,-0.1143106581948732,-0.2463120000000001,-0.14236999999999989,-0.900505,0.08567599999999986,0.09149800000000008,-0.914471,0.33198799999999995,0.23386799999999996,0.013966000000000034,0.36034,0.9707886414902325,single,-0.900505
169,0.704167,walk,-0.370530357571389,0.012718982481420772,-0.08903287736981219,0.16580686447650025,-0.14507383686701156,-0.08495917789922765,-1.6649868010558762,0.20902327813776325,-0.020398368130549818,-0.0011999040076339509,-0.0007199424046016851,-0.008639308855291825,0.748680206380156,-3.9161733871794002,-2.8795392552956445,-8.235482270106608,10.423932104148184,-7.026075782908032,1.1518157021363953,1.0942249170161458,1.6701327680682057,-0.251706,-0.1415519999999999,-0.900219,0.08721500000000004,0.09144200000000002,-0.9141360000000001,0.33892100000000003,0.23299399999999992,0.013917000000000068,0.36083,0.9854135008968907,single,-0.900219
170,0.708333,walk,-0.39126260201632723,0.025204032645228438,-0.08977436389822016,0.2138237241884032,-0.2286546679463563,-0.07638591724593169,-1.5960153624580227,0.17162746039366794,0.06313010081613038,-0.0036005760921983335,0.00048007681227712134,-0.005520883341334301,-4.976534912371146,2.9968915419605513,-0.1779852444570257,16.555794190555314,-8.976432487780913,20.050040553691826,-0.5762535008555884,0.28805070016293943,0.7485418900522136,-0.2567250000000001,-0.1409419999999999,-0.8995820000000001,0.08882999999999996,0.09133899999999995,-0.9137850000000001,0.34555500000000006,0.23228099999999985,0.014202999999999966,0.35797,0.988985517764474,single,-0.8995820000000001
171,0.7125,walk,-0.38708903287738766,0.040796736261099635,-0.08879289656829606,-0.05656913620604087,0.11446761102195604,-0.286098756831338,-1.548356131509444,0.17110631149507036,0.09479241660667062,-0.0021598272138050553,-0.0035997120230350688,-0.0007199424046075133,1.001576467228111,3.741949511848111,0.23553331651646128,11.437300443623288,-0.12506573040498686,7.598347921895848,0.34575207064873226,-0.9790709947953345,1.1521336541220903,-0.2615639999999999,-0.14039899999999994,-0.898817,0.09043400000000013,0.09115399999999996,-0.913418,0.35199800000000003,0.2315529999999999,0.014600999999999975,0.35399,0.9929012721585273,single,-0.898817
172,0.716667,walk,-0.3902087832973105,0.01823854091671812,-0.0818334533237154,0.20091717264637962,-0.2700483531741208,-0.03915298456348088,-1.5375569954403654,0.19078473722099185,0.12455003599711895,-0.0009599232061711044,-0.0033597312214922927,0.0007199424046075133,-0.7486802063649693,-5.413533799947527,1.6701327680778988,2.591585329752482,4.7224443786708274,7.141257353119294,0.28795392551810456,0.057590785107457215,0.34554471063475295,-0.26634500000000005,-0.13968000000000003,-0.897957,0.09205599999999992,0.09106400000000003,-0.913074,0.35840099999999997,0.23074400000000006,0.015117000000000047,0.34883000000000003,0.9940540481772218,single,-0.897957
173,0.720833,walk,-0.4116658665386888,-0.0021603456552870782,-0.09841574651945081,0.1972838189929516,-0.05563580843712339,-0.2178451183582737,-1.5386461833893885,0.20883341334617642,0.14978396543447328,0.0014402304368580521,-0.005520883341333616,0.002640422467595026,-5.150524061780809,-4.896516219876554,-3.9803872289332314,-0.26144693927584195,4.3323754501164276,6.057112202917664,0.5761290549758086,-0.5187595102835764,0.46098897335275146,-0.27103999999999995,-0.13880099999999995,-0.896923,0.093777,0.09104999999999996,-0.912653,0.36481699999999995,0.22985099999999992,0.015730000000000022,0.3427,0.9895216827862846,single,-0.896923
174,0.725,walk,-0.4041276697864185,0.014878809695225826,-0.09623230141588232,0.05402201240542361,-0.11088880540197175,-0.1863885484672829,-1.4914806815454313,0.20014398848092033,0.18190544756419388,0.0,-0.0021598272138316985,-0.0009599232061436286,1.8090224987449584,4.089070158510385,0.5239849060639492,11.318814937354649,-2.0852951440499217,7.7085390280106445,-0.3456276546335592,0.8065889434849752,-0.8640138405900234,-0.2755709999999998,-0.13802899999999996,-0.895764,0.09546100000000002,0.09097899999999992,-0.9122560000000001,0.3710319999999998,0.22900799999999988,0.016492000000000062,0.33508000000000004,0.9960607720175066,single,-0.895764
175,0.729167,walk,-0.6316294696424161,-0.06743460523157513,-0.044636429085677484,-1.0758827841751868,0.2027939451438525,-1.8853662267598972,-1.5279577633789208,0.25101991840649684,0.11111111111110981,-0.0011999040076339509,-0.004079673626093978,0.0007199424046075133,-54.596064280296574,-19.753639291288774,12.382018797745246,-8.753799336090504,12.209246442422877,-16.98928160621155,-0.28795392551810456,-0.4607262808404763,0.40313549574061175,-0.27930599999999983,-0.1367020000000001,-0.895115,0.09808800000000018,0.09124299999999996,-0.912067,0.377394,0.22794500000000006,0.016951999999999967,0.33048,0.9928116947622208,single,-0.895115
176,0.733333,walk,-0.43302928468552937,0.028084493518944462,-0.06529044647144738,0.1973828756289687,-0.4473299032903371,-0.11271252407306726,-1.4450312049928304,0.21171387421988688,0.24051848295727368,0.0007201152184290069,0.0038406144983235695,0.004320691310609852,47.67167185714992,22.928252220479962,-4.957757413770976,19.905558902085993,-9.43496019841813,31.06273928136432,0.4608783547918762,1.9011733375942248,0.8643180283250926,-0.28352200000000005,-0.13593699999999997,-0.893841,0.09989500000000007,0.09114200000000006,-0.911777,0.3834170000000001,0.22707900000000003,0.017935999999999952,0.32064000000000004,0.9902907176352092,single,-0.893841
177,0.7375,walk,-0.4324454043676668,0.004319654427663397,-0.07823374130068034,0.025686551474244215,-0.2640010939757429,-0.24697395360986427,-1.4353251739860735,0.2481401487880901,0.18286537077033668,-0.002879769618460027,-0.0028797696184333834,-0.00479961603071731,0.14012006668167656,-5.703105133496733,-3.1061422676344748,2.329261100733587,8.741606567843277,-13.835640073658881,-0.8639032485934741,-1.612763166968299,-2.1886986660252203,-0.287701,-0.13492100000000007,-0.892753,0.10168500000000003,0.09111199999999997,-0.911471,0.389386,0.22603300000000004,0.018718000000000012,0.31282,0.9895089376460807,single,-0.892753
178,0.741667,walk,-0.4130069594432192,0.01295896328293725,-0.0988720902328022,0.13726238723913903,-0.18667510766600867,-0.29891975116711045,-1.4259659227261832,0.2562994960403382,0.20782337413007324,-0.002879769618406817,-0.0014398848092300517,-0.00503959683225356,4.664853593580033,2.07326826380466,-4.952807519107814,2.2460406191241953,1.9580866936040917,5.989441651004806,1.2769388178635854e-11,0.34554471063195563,-0.05759078510589252,-0.291922,-0.133907,-0.8914749999999999,0.10339399999999999,0.09105199999999991,-0.9110799999999999,0.395316,0.2249589999999999,0.019604999999999984,0.30395000000000005,0.9900328487366123,single,-0.8914749999999999
179,0.745833,walk,-0.42270763322134475,-0.008401344215076146,-0.10249639942389699,0.09141467317467293,0.08341717853627403,-0.4051939387781981,-1.3509361497839565,0.21771483437349748,0.2902064330292849,-0.0012001920307327777,-0.0007201152184290069,-0.006721075372059584,-2.3285342722336893,-5.1272941665898655,-0.8699734016070049,18.010027110472066,-9.261800688151869,19.775098151515024,0.40316312714211183,0.17277234536750943,-0.4036194286620313,-0.29578899999999986,-0.132965,-0.889839,0.10515000000000008,0.09108399999999994,-0.910681,0.40093899999999993,0.22404899999999994,0.020841999999999916,0.29158,0.9885578895454659,single,-0.889839
180,0.75,walk,-0.4636429085673218,0.00743940484758627,-0.08567314614829324,0.0561741041395895,-0.0561326863659314,-0.38458598181896225,-1.3650107991360916,0.26229901607871425,0.22030237580993403,-0.004799616030748949,0.0019198464122889224,-0.0076793856491481965,-9.823680188619333,3.8014756569863923,4.037257805520427,-3.3776456328617677,10.69934766143903,-16.77563168210951,-0.8637926565913473,0.6335401081636451,-0.22997606841579207,-0.29954499999999995,-0.13190299999999988,-0.888564,0.10706199999999999,0.09106100000000006,-0.910356,0.40660699999999994,0.22296399999999994,0.021792000000000034,0.28208,0.9845713930709377,single,-0.888564
181,0.754167,walk,-0.43124550035992626,0.00911927045835906,-0.0904727621790422,0.15437218941693023,-0.27690837529422213,-0.23053631197046473,-1.3378929685624774,0.26565874730020655,0.22630189584833027,-0.0021598272138050553,0.000479961603058909,-0.005039596832253425,7.774755989295731,0.40313549574580665,-1.1518157021235698,6.507758716969993,0.8062709914788279,1.4397696276448748,0.6334986361756356,-0.3455447106383495,0.6334986361638472,-0.303323,-0.1308339999999999,-0.8872439999999999,0.10884999999999989,0.09102500000000002,-0.91,0.4121729999999999,0.22185899999999992,0.02275600000000011,0.27244,0.9908268578984378,single,-0.8872439999999999
182,0.758333,walk,-0.4409505520883551,0.01944311089774308,-0.07801248199712421,0.14113140641185895,-0.40318020951458455,-0.1586396209471181,-1.4704752760441842,0.36485837734036597,0.1495439270283241,-0.0007201152184290069,-0.0016802688430098993,0.006000960153624747,-2.3295851484466708,2.4781182043648617,2.9909457949875122,-31.824845770932942,23.811721085011843,-18.424860494480587,0.3455861726778798,-0.5185382731802224,2.6501577018430544,-0.307612,-0.12939499999999993,-0.886296,0.110684,0.09093700000000005,-0.90965,0.418296,0.22033199999999997,0.023353999999999986,0.26646000000000003,0.9895446196628516,single,-0.886296
